log(E / eV)	log(z / pc)	t / yr	 logQ
6	1	0	56.9354
6.10101	1	0	57.1746
6.20202	1	0	57.3223
6.30303	1	0	57.3975
6.40404	1	0	57.4153
6.50505	1	0	57.3875
6.60606	1	0	57.3236
6.70707	1	0	57.2311
6.80808	1	0	57.1159
6.90909	1	0	56.9827
7.0101	1	0	56.8352
7.11111	1	0	56.6765
7.21212	1	0	56.5087
7.31313	1	0	56.3338
7.41414	1	0	56.1534
7.51515	1	0	55.9684
7.61616	1	0	55.7799
7.71717	1	0	55.5886
7.81818	1	0	55.3951
7.91919	1	0	55.1998
8.0202	1	0	55.0031
8.12121	1	0	54.8053
8.22222	1	0	54.6066
8.32323	1	0	54.4073
8.42424	1	0	54.2073
8.52525	1	0	54.007
8.62626	1	0	53.8063
8.72727	1	0	53.6053
8.82828	1	0	53.4041
8.92929	1	0	53.2028
9.0303	1	0	53.0013
9.13131	1	0	52.7997
9.23232	1	0	52.598
9.33333	1	0	52.3962
9.43434	1	0	52.1944
9.53535	1	0	51.9925
9.63636	1	0	51.7906
9.73737	1	0	51.5887
9.83838	1	0	51.3868
9.93939	1	0	51.1848
10.0404	1	0	50.9828
10.1414	1	0	50.7809
10.2424	1	0	50.5789
10.3434	1	0	50.3769
10.4444	1	0	50.1749
10.5455	1	0	49.9729
10.6465	1	0	49.7708
10.7475	1	0	49.5688
10.8485	1	0	49.3668
10.9495	1	0	49.1648
11.0505	1	0	48.9627
11.1515	1	0	48.7607
11.2525	1	0	48.5587
11.3535	1	0	48.3566
11.4545	1	0	48.1545
11.5556	1	0	47.9524
11.6566	1	0	47.7503
11.7576	1	0	47.5482
11.8586	1	0	47.346
11.9596	1	0	47.1438
12.0606	1	0	46.9414
12.1616	1	0	46.7383
12.2626	1	0	46.5335
12.3636	1	0	46.3253
12.4646	1	0	46.1117
12.5657	1	0	45.8906
12.6667	1	0	45.6604
12.7677	1	0	45.4202
12.8687	1	0	45.1697
12.9697	1	0	44.9094
13.0707	1	0	44.6398
13.1717	1	0	44.3617
13.2727	1	0	44.0757
13.3737	1	0	43.7826
13.4747	1	0	43.4828
13.5758	1	0	43.1766
13.6768	1	0	42.8643
13.7778	1	0	42.5456
13.8788	1	0	42.2203
13.9798	1	0	41.8879
14.0808	1	0	41.5477
14.1818	1	0	41.1985
14.2828	1	0	40.839
14.3838	1	0	40.4674
14.4848	1	0	40.0817
14.5859	1	0	39.6789
14.6869	1	0	39.2559
14.7879	1	0	38.8083
14.8889	1	0	38.331
14.9899	1	0	37.8175
15.0909	1	0	37.2597
15.1919	1	0	36.6475
15.2929	1	0	35.9683
15.3939	1	0	35.2063
15.4949	1	0	34.3415
15.596	1	0	33.3482
15.697	1	0	32.1933
15.798	1	0	30.8337
15.899	1	0	29.2062
16	1	0	-inf
6	1.01426	0.285705	57.4457
6.10101	1.01426	0.285705	57.61
6.20202	1.01426	0.285705	57.7047
6.30303	1.01426	0.285705	57.7418
6.40404	1.01426	0.285705	57.7316
6.50505	1.01426	0.285705	57.683
6.60606	1.01426	0.285705	57.6035
6.70707	1.01426	0.285705	57.4991
6.80808	1.01426	0.285705	57.3748
6.90909	1.01426	0.285705	57.2346
7.0101	1.01426	0.285705	57.0817
7.11111	1.01426	0.285705	56.9186
7.21212	1.01426	0.285705	56.7475
7.31313	1.01426	0.285705	56.5701
7.41414	1.01426	0.285705	56.3875
7.51515	1.01426	0.285705	56.201
7.61616	1.01426	0.285705	56.0112
7.71717	1.01426	0.285705	55.8189
7.81818	1.01426	0.285705	55.6246
7.91919	1.01426	0.285705	55.4287
8.0202	1.01426	0.285705	55.2315
8.12121	1.01426	0.285705	55.0333
8.22222	1.01426	0.285705	54.8343
8.32323	1.01426	0.285705	54.6347
8.42424	1.01426	0.285705	54.4346
8.52525	1.01426	0.285705	54.2341
8.62626	1.01426	0.285705	54.0333
8.72727	1.01426	0.285705	53.8322
8.82828	1.01426	0.285705	53.6309
8.92929	1.01426	0.285705	53.4295
9.0303	1.01426	0.285705	53.228
9.13131	1.01426	0.285705	53.0263
9.23232	1.01426	0.285705	52.8246
9.33333	1.01426	0.285705	52.6228
9.43434	1.01426	0.285705	52.421
9.53535	1.01426	0.285705	52.2191
9.63636	1.01426	0.285705	52.0172
9.73737	1.01426	0.285705	51.8153
9.83838	1.01426	0.285705	51.6133
9.93939	1.01426	0.285705	51.4113
10.0404	1.01426	0.285705	51.2094
10.1414	1.01426	0.285705	51.0074
10.2424	1.01426	0.285705	50.8054
10.3434	1.01426	0.285705	50.6034
10.4444	1.01426	0.285705	50.4014
10.5455	1.01426	0.285705	50.1994
10.6465	1.01426	0.285705	49.9974
10.7475	1.01426	0.285705	49.7953
10.8485	1.01426	0.285705	49.5933
10.9495	1.01426	0.285705	49.3913
11.0505	1.01426	0.285705	49.1892
11.1515	1.01426	0.285705	48.987
11.2525	1.01426	0.285705	48.7847
11.3535	1.01426	0.285705	48.5819
11.4545	1.01426	0.285705	48.378
11.5556	1.01426	0.285705	48.1723
11.6566	1.01426	0.285705	47.9635
11.7576	1.01426	0.285705	47.75
11.8586	1.01426	0.285705	47.5304
11.9596	1.01426	0.285705	47.3033
12.0606	1.01426	0.285705	47.068
12.1616	1.01426	0.285705	46.8241
12.2626	1.01426	0.285705	46.5715
12.3636	1.01426	0.285705	46.3107
12.4646	1.01426	0.285705	46.0424
12.5657	1.01426	0.285705	45.7673
12.6667	1.01426	0.285705	45.4861
12.7677	1.01426	0.285705	45.1996
12.8687	1.01426	0.285705	44.9083
12.9697	1.01426	0.285705	44.6128
13.0707	1.01426	0.285705	44.3135
13.1717	1.01426	0.285705	44.0106
13.2727	1.01426	0.285705	43.7044
13.3737	1.01426	0.285705	43.3947
13.4747	1.01426	0.285705	43.0815
13.5758	1.01426	0.285705	42.7647
13.6768	1.01426	0.285705	42.4437
13.7778	1.01426	0.285705	42.1183
13.8788	1.01426	0.285705	41.7876
13.9798	1.01426	0.285705	41.451
14.0808	1.01426	0.285705	41.1074
14.1818	1.01426	0.285705	40.7557
14.2828	1.01426	0.285705	40.3941
14.3838	1.01426	0.285705	40.021
14.4848	1.01426	0.285705	39.6341
14.5859	1.01426	0.285705	39.2305
14.6869	1.01426	0.285705	38.8067
14.7879	1.01426	0.285705	38.3586
14.8889	1.01426	0.285705	37.8809
14.9899	1.01426	0.285705	37.3671
15.0909	1.01426	0.285705	36.8091
15.1919	1.01426	0.285705	36.1967
15.2929	1.01426	0.285705	35.5174
15.3939	1.01426	0.285705	34.7553
15.4949	1.01426	0.285705	33.8904
15.596	1.01426	0.285705	32.8971
15.697	1.01426	0.285705	31.7422
15.798	1.01426	0.285705	30.3825
15.899	1.01426	0.285705	28.755
16	1.01426	0.285705	-inf
6	1.02853	0.363847	57.7096
6.10101	1.02853	0.363847	57.7877
6.20202	1.02853	0.363847	57.8233
6.30303	1.02853	0.363847	57.819
6.40404	1.02853	0.363847	57.7793
6.50505	1.02853	0.363847	57.7093
6.60606	1.02853	0.363847	57.614
6.70707	1.02853	0.363847	57.4979
6.80808	1.02853	0.363847	57.3646
6.90909	1.02853	0.363847	57.2176
7.0101	1.02853	0.363847	57.0594
7.11111	1.02853	0.363847	56.8923
7.21212	1.02853	0.363847	56.7181
7.31313	1.02853	0.363847	56.5382
7.41414	1.02853	0.363847	56.3537
7.51515	1.02853	0.363847	56.1656
7.61616	1.02853	0.363847	55.9747
7.71717	1.02853	0.363847	55.7814
7.81818	1.02853	0.363847	55.5864
7.91919	1.02853	0.363847	55.3899
8.0202	1.02853	0.363847	55.1922
8.12121	1.02853	0.363847	54.9937
8.22222	1.02853	0.363847	54.7944
8.32323	1.02853	0.363847	54.5946
8.42424	1.02853	0.363847	54.3943
8.52525	1.02853	0.363847	54.1936
8.62626	1.02853	0.363847	53.9927
8.72727	1.02853	0.363847	53.7915
8.82828	1.02853	0.363847	53.5902
8.92929	1.02853	0.363847	53.3887
9.0303	1.02853	0.363847	53.1871
9.13131	1.02853	0.363847	52.9854
9.23232	1.02853	0.363847	52.7837
9.33333	1.02853	0.363847	52.5819
9.43434	1.02853	0.363847	52.38
9.53535	1.02853	0.363847	52.1781
9.63636	1.02853	0.363847	51.9762
9.73737	1.02853	0.363847	51.7743
9.83838	1.02853	0.363847	51.5723
9.93939	1.02853	0.363847	51.3704
10.0404	1.02853	0.363847	51.1684
10.1414	1.02853	0.363847	50.9664
10.2424	1.02853	0.363847	50.7644
10.3434	1.02853	0.363847	50.5624
10.4444	1.02853	0.363847	50.3603
10.5455	1.02853	0.363847	50.1583
10.6465	1.02853	0.363847	49.9562
10.7475	1.02853	0.363847	49.754
10.8485	1.02853	0.363847	49.5517
10.9495	1.02853	0.363847	49.3491
11.0505	1.02853	0.363847	49.1459
11.1515	1.02853	0.363847	48.9417
11.2525	1.02853	0.363847	48.7359
11.3535	1.02853	0.363847	48.5277
11.4545	1.02853	0.363847	48.3159
11.5556	1.02853	0.363847	48.0995
11.6566	1.02853	0.363847	47.8773
11.7576	1.02853	0.363847	47.6482
11.8586	1.02853	0.363847	47.4117
11.9596	1.02853	0.363847	47.1673
12.0606	1.02853	0.363847	46.915
12.1616	1.02853	0.363847	46.6551
12.2626	1.02853	0.363847	46.388
12.3636	1.02853	0.363847	46.1145
12.4646	1.02853	0.363847	45.8352
12.5657	1.02853	0.363847	45.5508
12.6667	1.02853	0.363847	45.2618
12.7677	1.02853	0.363847	44.9688
12.8687	1.02853	0.363847	44.6723
12.9697	1.02853	0.363847	44.3726
13.0707	1.02853	0.363847	44.0698
13.1717	1.02853	0.363847	43.7642
13.2727	1.02853	0.363847	43.4557
13.3737	1.02853	0.363847	43.1443
13.4747	1.02853	0.363847	42.8297
13.5758	1.02853	0.363847	42.5117
13.6768	1.02853	0.363847	42.1899
13.7778	1.02853	0.363847	41.8638
13.8788	1.02853	0.363847	41.5326
13.9798	1.02853	0.363847	41.1956
14.0808	1.02853	0.363847	40.8517
14.1818	1.02853	0.363847	40.4996
14.2828	1.02853	0.363847	40.1379
14.3838	1.02853	0.363847	39.7647
14.4848	1.02853	0.363847	39.3776
14.5859	1.02853	0.363847	38.9739
14.6869	1.02853	0.363847	38.5501
14.7879	1.02853	0.363847	38.1019
14.8889	1.02853	0.363847	37.6242
14.9899	1.02853	0.363847	37.1104
15.0909	1.02853	0.363847	36.5523
15.1919	1.02853	0.363847	35.9399
15.2929	1.02853	0.363847	35.2606
15.3939	1.02853	0.363847	34.4985
15.4949	1.02853	0.363847	33.6336
15.596	1.02853	0.363847	32.6403
15.697	1.02853	0.363847	31.4854
15.798	1.02853	0.363847	30.1257
15.899	1.02853	0.363847	28.4982
16	1.02853	0.363847	-inf
6	1.04279	0.446276	57.8998
6.10101	1.04279	0.446276	57.9302
6.20202	1.04279	0.446276	57.9311
6.30303	1.04279	0.446276	57.9017
6.40404	1.04279	0.446276	57.8438
6.50505	1.04279	0.446276	57.7606
6.60606	1.04279	0.446276	57.6554
6.70707	1.04279	0.446276	57.5318
6.80808	1.04279	0.446276	57.393
6.90909	1.04279	0.446276	57.2417
7.0101	1.04279	0.446276	57.0803
7.11111	1.04279	0.446276	56.9107
7.21212	1.04279	0.446276	56.7345
7.31313	1.04279	0.446276	56.553
7.41414	1.04279	0.446276	56.3673
7.51515	1.04279	0.446276	56.1783
7.61616	1.04279	0.446276	55.9866
7.71717	1.04279	0.446276	55.7928
7.81818	1.04279	0.446276	55.5973
7.91919	1.04279	0.446276	55.4004
8.0202	1.04279	0.446276	55.2025
8.12121	1.04279	0.446276	55.0037
8.22222	1.04279	0.446276	54.8043
8.32323	1.04279	0.446276	54.6043
8.42424	1.04279	0.446276	54.4039
8.52525	1.04279	0.446276	54.2032
8.62626	1.04279	0.446276	54.0021
8.72727	1.04279	0.446276	53.8009
8.82828	1.04279	0.446276	53.5996
8.92929	1.04279	0.446276	53.398
9.0303	1.04279	0.446276	53.1964
9.13131	1.04279	0.446276	52.9947
9.23232	1.04279	0.446276	52.7929
9.33333	1.04279	0.446276	52.5911
9.43434	1.04279	0.446276	52.3893
9.53535	1.04279	0.446276	52.1874
9.63636	1.04279	0.446276	51.9854
9.73737	1.04279	0.446276	51.7835
9.83838	1.04279	0.446276	51.5815
9.93939	1.04279	0.446276	51.3796
10.0404	1.04279	0.446276	51.1776
10.1414	1.04279	0.446276	50.9756
10.2424	1.04279	0.446276	50.7735
10.3434	1.04279	0.446276	50.5715
10.4444	1.04279	0.446276	50.3693
10.5455	1.04279	0.446276	50.1671
10.6465	1.04279	0.446276	49.9647
10.7475	1.04279	0.446276	49.762
10.8485	1.04279	0.446276	49.5588
10.9495	1.04279	0.446276	49.3548
11.0505	1.04279	0.446276	49.1495
11.1515	1.04279	0.446276	48.9424
11.2525	1.04279	0.446276	48.7327
11.3535	1.04279	0.446276	48.5195
11.4545	1.04279	0.446276	48.3017
11.5556	1.04279	0.446276	48.0784
11.6566	1.04279	0.446276	47.8487
11.7576	1.04279	0.446276	47.612
11.8586	1.04279	0.446276	47.3678
11.9596	1.04279	0.446276	47.1162
12.0606	1.04279	0.446276	46.8572
12.1616	1.04279	0.446276	46.5914
12.2626	1.04279	0.446276	46.3191
12.3636	1.04279	0.446276	46.0412
12.4646	1.04279	0.446276	45.7581
12.5657	1.04279	0.446276	45.4705
12.6667	1.04279	0.446276	45.1789
12.7677	1.04279	0.446276	44.8838
12.8687	1.04279	0.446276	44.5856
12.9697	1.04279	0.446276	44.2844
13.0707	1.04279	0.446276	43.9806
13.1717	1.04279	0.446276	43.6741
13.2727	1.04279	0.446276	43.3649
13.3737	1.04279	0.446276	43.0529
13.4747	1.04279	0.446276	42.7378
13.5758	1.04279	0.446276	42.4195
13.6768	1.04279	0.446276	42.0974
13.7778	1.04279	0.446276	41.7711
13.8788	1.04279	0.446276	41.4397
13.9798	1.04279	0.446276	41.1026
14.0808	1.04279	0.446276	40.7586
14.1818	1.04279	0.446276	40.4064
14.2828	1.04279	0.446276	40.0447
14.3838	1.04279	0.446276	39.6714
14.4848	1.04279	0.446276	39.2842
14.5859	1.04279	0.446276	38.8805
14.6869	1.04279	0.446276	38.4567
14.7879	1.04279	0.446276	38.0085
14.8889	1.04279	0.446276	37.5308
14.9899	1.04279	0.446276	37.0169
15.0909	1.04279	0.446276	36.4588
15.1919	1.04279	0.446276	35.8465
15.2929	1.04279	0.446276	35.1672
15.3939	1.04279	0.446276	34.4051
15.4949	1.04279	0.446276	33.5402
15.596	1.04279	0.446276	32.5468
15.697	1.04279	0.446276	31.3919
15.798	1.04279	0.446276	30.0322
15.899	1.04279	0.446276	28.4047
16	1.04279	0.446276	-inf
6	1.05706	0.50345	58.0166
6.10101	1.05706	0.50345	58.0132
6.20202	1.05706	0.50345	57.9881
6.30303	1.05706	0.50345	57.9393
6.40404	1.05706	0.50345	57.867
6.50505	1.05706	0.50345	57.773
6.60606	1.05706	0.50345	57.6598
6.70707	1.05706	0.50345	57.5302
6.80808	1.05706	0.50345	57.3868
6.90909	1.05706	0.50345	57.232
7.0101	1.05706	0.50345	57.0678
7.11111	1.05706	0.50345	56.8961
7.21212	1.05706	0.50345	56.7183
7.31313	1.05706	0.50345	56.5356
7.41414	1.05706	0.50345	56.3489
7.51515	1.05706	0.50345	56.1591
7.61616	1.05706	0.50345	55.9668
7.71717	1.05706	0.50345	55.7725
7.81818	1.05706	0.50345	55.5766
7.91919	1.05706	0.50345	55.3795
8.0202	1.05706	0.50345	55.1813
8.12121	1.05706	0.50345	54.9823
8.22222	1.05706	0.50345	54.7827
8.32323	1.05706	0.50345	54.5826
8.42424	1.05706	0.50345	54.3822
8.52525	1.05706	0.50345	54.1813
8.62626	1.05706	0.50345	53.9803
8.72727	1.05706	0.50345	53.779
8.82828	1.05706	0.50345	53.5776
8.92929	1.05706	0.50345	53.3761
9.0303	1.05706	0.50345	53.1744
9.13131	1.05706	0.50345	52.9727
9.23232	1.05706	0.50345	52.7709
9.33333	1.05706	0.50345	52.5691
9.43434	1.05706	0.50345	52.3672
9.53535	1.05706	0.50345	52.1653
9.63636	1.05706	0.50345	51.9634
9.73737	1.05706	0.50345	51.7614
9.83838	1.05706	0.50345	51.5594
9.93939	1.05706	0.50345	51.3574
10.0404	1.05706	0.50345	51.1554
10.1414	1.05706	0.50345	50.9533
10.2424	1.05706	0.50345	50.7512
10.3434	1.05706	0.50345	50.5489
10.4444	1.05706	0.50345	50.3465
10.5455	1.05706	0.50345	50.1439
10.6465	1.05706	0.50345	49.9409
10.7475	1.05706	0.50345	49.7373
10.8485	1.05706	0.50345	49.5328
10.9495	1.05706	0.50345	49.327
11.0505	1.05706	0.50345	49.1195
11.1515	1.05706	0.50345	48.9095
11.2525	1.05706	0.50345	48.6962
11.3535	1.05706	0.50345	48.4788
11.4545	1.05706	0.50345	48.2563
11.5556	1.05706	0.50345	48.028
11.6566	1.05706	0.50345	47.7933
11.7576	1.05706	0.50345	47.5515
11.8586	1.05706	0.50345	47.3026
11.9596	1.05706	0.50345	47.0465
12.0606	1.05706	0.50345	46.7836
12.1616	1.05706	0.50345	46.5142
12.2626	1.05706	0.50345	46.239
12.3636	1.05706	0.50345	45.9585
12.4646	1.05706	0.50345	45.6732
12.5657	1.05706	0.50345	45.3839
12.6667	1.05706	0.50345	45.0909
12.7677	1.05706	0.50345	44.7946
12.8687	1.05706	0.50345	44.4954
12.9697	1.05706	0.50345	44.1935
13.0707	1.05706	0.50345	43.889
13.1717	1.05706	0.50345	43.582
13.2727	1.05706	0.50345	43.2724
13.3737	1.05706	0.50345	42.9601
13.4747	1.05706	0.50345	42.6448
13.5758	1.05706	0.50345	42.3263
13.6768	1.05706	0.50345	42.0041
13.7778	1.05706	0.50345	41.6776
13.8788	1.05706	0.50345	41.3462
13.9798	1.05706	0.50345	41.0089
14.0808	1.05706	0.50345	40.6648
14.1818	1.05706	0.50345	40.3127
14.2828	1.05706	0.50345	39.9509
14.3838	1.05706	0.50345	39.5776
14.4848	1.05706	0.50345	39.1904
14.5859	1.05706	0.50345	38.7867
14.6869	1.05706	0.50345	38.3628
14.7879	1.05706	0.50345	37.9147
14.8889	1.05706	0.50345	37.4369
14.9899	1.05706	0.50345	36.9231
15.0909	1.05706	0.50345	36.365
15.1919	1.05706	0.50345	35.7526
15.2929	1.05706	0.50345	35.0733
15.3939	1.05706	0.50345	34.3112
15.4949	1.05706	0.50345	33.4463
15.596	1.05706	0.50345	32.4529
15.697	1.05706	0.50345	31.2981
15.798	1.05706	0.50345	29.9384
15.899	1.05706	0.50345	28.3108
16	1.05706	0.50345	-inf
6	1.07132	0.5607	58.097
6.10101	1.07132	0.5607	58.0725
6.20202	1.07132	0.5607	58.0305
6.30303	1.07132	0.5607	57.9687
6.40404	1.07132	0.5607	57.8866
6.50505	1.07132	0.5607	57.7851
6.60606	1.07132	0.5607	57.6664
6.70707	1.07132	0.5607	57.5325
6.80808	1.07132	0.5607	57.3858
6.90909	1.07132	0.5607	57.2285
7.0101	1.07132	0.5607	57.0625
7.11111	1.07132	0.5607	56.8893
7.21212	1.07132	0.5607	56.7103
7.31313	1.07132	0.5607	56.5267
7.41414	1.07132	0.5607	56.3393
7.51515	1.07132	0.5607	56.149
7.61616	1.07132	0.5607	55.9562
7.71717	1.07132	0.5607	55.7616
7.81818	1.07132	0.5607	55.5654
7.91919	1.07132	0.5607	55.368
8.0202	1.07132	0.5607	55.1697
8.12121	1.07132	0.5607	54.9706
8.22222	1.07132	0.5607	54.7709
8.32323	1.07132	0.5607	54.5707
8.42424	1.07132	0.5607	54.3702
8.52525	1.07132	0.5607	54.1693
8.62626	1.07132	0.5607	53.9682
8.72727	1.07132	0.5607	53.7669
8.82828	1.07132	0.5607	53.5655
8.92929	1.07132	0.5607	53.3639
9.0303	1.07132	0.5607	53.1622
9.13131	1.07132	0.5607	52.9605
9.23232	1.07132	0.5607	52.7587
9.33333	1.07132	0.5607	52.5569
9.43434	1.07132	0.5607	52.355
9.53535	1.07132	0.5607	52.1531
9.63636	1.07132	0.5607	51.9511
9.73737	1.07132	0.5607	51.7491
9.83838	1.07132	0.5607	51.5471
9.93939	1.07132	0.5607	51.345
10.0404	1.07132	0.5607	51.1429
10.1414	1.07132	0.5607	50.9407
10.2424	1.07132	0.5607	50.7384
10.3434	1.07132	0.5607	50.5359
10.4444	1.07132	0.5607	50.3332
10.5455	1.07132	0.5607	50.13
10.6465	1.07132	0.5607	49.9263
10.7475	1.07132	0.5607	49.7218
10.8485	1.07132	0.5607	49.5161
10.9495	1.07132	0.5607	49.3088
11.0505	1.07132	0.5607	49.0993
11.1515	1.07132	0.5607	48.887
11.2525	1.07132	0.5607	48.671
11.3535	1.07132	0.5607	48.4506
11.4545	1.07132	0.5607	48.2249
11.5556	1.07132	0.5607	47.9933
11.6566	1.07132	0.5607	47.7552
11.7576	1.07132	0.5607	47.5102
11.8586	1.07132	0.5607	47.2583
11.9596	1.07132	0.5607	46.9995
12.0606	1.07132	0.5607	46.7341
12.1616	1.07132	0.5607	46.4626
12.2626	1.07132	0.5607	46.1855
12.3636	1.07132	0.5607	45.9034
12.4646	1.07132	0.5607	45.6169
12.5657	1.07132	0.5607	45.3265
12.6667	1.07132	0.5607	45.0326
12.7677	1.07132	0.5607	44.7356
12.8687	1.07132	0.5607	44.4359
12.9697	1.07132	0.5607	44.1335
13.0707	1.07132	0.5607	43.8287
13.1717	1.07132	0.5607	43.5213
13.2727	1.07132	0.5607	43.2115
13.3737	1.07132	0.5607	42.899
13.4747	1.07132	0.5607	42.5836
13.5758	1.07132	0.5607	42.265
13.6768	1.07132	0.5607	41.9427
13.7778	1.07132	0.5607	41.6161
13.8788	1.07132	0.5607	41.2846
13.9798	1.07132	0.5607	40.9473
14.0808	1.07132	0.5607	40.6032
14.1818	1.07132	0.5607	40.251
14.2828	1.07132	0.5607	39.8892
14.3838	1.07132	0.5607	39.5159
14.4848	1.07132	0.5607	39.1287
14.5859	1.07132	0.5607	38.725
14.6869	1.07132	0.5607	38.3011
14.7879	1.07132	0.5607	37.853
14.8889	1.07132	0.5607	37.3752
14.9899	1.07132	0.5607	36.8613
15.0909	1.07132	0.5607	36.3033
15.1919	1.07132	0.5607	35.6909
15.2929	1.07132	0.5607	35.0116
15.3939	1.07132	0.5607	34.2495
15.4949	1.07132	0.5607	33.3846
15.596	1.07132	0.5607	32.3912
15.697	1.07132	0.5607	31.2363
15.798	1.07132	0.5607	29.8766
15.899	1.07132	0.5607	28.2491
16	1.07132	0.5607	-inf
6	1.08559	0.605329	58.1412
6.10101	1.08559	0.605329	58.1007
6.20202	1.08559	0.605329	58.0458
6.30303	1.08559	0.605329	57.9738
6.40404	1.08559	0.605329	57.8838
6.50505	1.08559	0.605329	57.7763
6.60606	1.08559	0.605329	57.653
6.70707	1.08559	0.605329	57.5156
6.80808	1.08559	0.605329	57.3663
6.90909	1.08559	0.605329	57.2069
7.0101	1.08559	0.605329	57.0393
7.11111	1.08559	0.605329	56.8649
7.21212	1.08559	0.605329	56.685
7.31313	1.08559	0.605329	56.5006
7.41414	1.08559	0.605329	56.3126
7.51515	1.08559	0.605329	56.1218
7.61616	1.08559	0.605329	55.9287
7.71717	1.08559	0.605329	55.7338
7.81818	1.08559	0.605329	55.5374
7.91919	1.08559	0.605329	55.3398
8.0202	1.08559	0.605329	55.1413
8.12121	1.08559	0.605329	54.9421
8.22222	1.08559	0.605329	54.7423
8.32323	1.08559	0.605329	54.5421
8.42424	1.08559	0.605329	54.3415
8.52525	1.08559	0.605329	54.1406
8.62626	1.08559	0.605329	53.9394
8.72727	1.08559	0.605329	53.7381
8.82828	1.08559	0.605329	53.5366
8.92929	1.08559	0.605329	53.335
9.0303	1.08559	0.605329	53.1334
9.13131	1.08559	0.605329	52.9316
9.23232	1.08559	0.605329	52.7298
9.33333	1.08559	0.605329	52.528
9.43434	1.08559	0.605329	52.326
9.53535	1.08559	0.605329	52.1241
9.63636	1.08559	0.605329	51.9221
9.73737	1.08559	0.605329	51.7201
9.83838	1.08559	0.605329	51.518
9.93939	1.08559	0.605329	51.3159
10.0404	1.08559	0.605329	51.1137
10.1414	1.08559	0.605329	50.9113
10.2424	1.08559	0.605329	50.7088
10.3434	1.08559	0.605329	50.506
10.4444	1.08559	0.605329	50.3028
10.5455	1.08559	0.605329	50.0991
10.6465	1.08559	0.605329	49.8947
10.7475	1.08559	0.605329	49.6893
10.8485	1.08559	0.605329	49.4824
10.9495	1.08559	0.605329	49.2737
11.0505	1.08559	0.605329	49.0625
11.1515	1.08559	0.605329	48.8482
11.2525	1.08559	0.605329	48.6301
11.3535	1.08559	0.605329	48.4073
11.4545	1.08559	0.605329	48.1792
11.5556	1.08559	0.605329	47.9451
11.6566	1.08559	0.605329	47.7045
11.7576	1.08559	0.605329	47.4572
11.8586	1.08559	0.605329	47.2032
11.9596	1.08559	0.605329	46.9424
12.0606	1.08559	0.605329	46.6753
12.1616	1.08559	0.605329	46.4023
12.2626	1.08559	0.605329	46.124
12.3636	1.08559	0.605329	45.8409
12.4646	1.08559	0.605329	45.5535
12.5657	1.08559	0.605329	45.2623
12.6667	1.08559	0.605329	44.9679
12.7677	1.08559	0.605329	44.6704
12.8687	1.08559	0.605329	44.3703
12.9697	1.08559	0.605329	44.0676
13.0707	1.08559	0.605329	43.7625
13.1717	1.08559	0.605329	43.455
13.2727	1.08559	0.605329	43.145
13.3737	1.08559	0.605329	42.8324
13.4747	1.08559	0.605329	42.5169
13.5758	1.08559	0.605329	42.1982
13.6768	1.08559	0.605329	41.8758
13.7778	1.08559	0.605329	41.5492
13.8788	1.08559	0.605329	41.2176
13.9798	1.08559	0.605329	40.8803
14.0808	1.08559	0.605329	40.5362
14.1818	1.08559	0.605329	40.184
14.2828	1.08559	0.605329	39.8222
14.3838	1.08559	0.605329	39.4488
14.4848	1.08559	0.605329	39.0616
14.5859	1.08559	0.605329	38.6579
14.6869	1.08559	0.605329	38.234
14.7879	1.08559	0.605329	37.7859
14.8889	1.08559	0.605329	37.3081
14.9899	1.08559	0.605329	36.7942
15.0909	1.08559	0.605329	36.2362
15.1919	1.08559	0.605329	35.6238
15.2929	1.08559	0.605329	34.9445
15.3939	1.08559	0.605329	34.1824
15.4949	1.08559	0.605329	33.3175
15.596	1.08559	0.605329	32.3241
15.697	1.08559	0.605329	31.1692
15.798	1.08559	0.605329	29.8095
15.899	1.08559	0.605329	28.182
16	1.08559	0.605329	-inf
6	1.09985	0.645499	58.1646
6.10101	1.09985	0.645499	58.1125
6.20202	1.09985	0.645499	58.048
6.30303	1.09985	0.645499	57.9683
6.40404	1.09985	0.645499	57.8723
6.50505	1.09985	0.645499	57.7602
6.60606	1.09985	0.645499	57.6333
6.70707	1.09985	0.645499	57.4932
6.80808	1.09985	0.645499	57.3418
6.90909	1.09985	0.645499	57.1808
7.0101	1.09985	0.645499	57.0119
7.11111	1.09985	0.645499	56.8365
7.21212	1.09985	0.645499	56.6558
7.31313	1.09985	0.645499	56.4709
7.41414	1.09985	0.645499	56.2824
7.51515	1.09985	0.645499	56.0913
7.61616	1.09985	0.645499	55.8979
7.71717	1.09985	0.645499	55.7027
7.81818	1.09985	0.645499	55.5061
7.91919	1.09985	0.645499	55.3084
8.0202	1.09985	0.645499	55.1098
8.12121	1.09985	0.645499	54.9105
8.22222	1.09985	0.645499	54.7107
8.32323	1.09985	0.645499	54.5104
8.42424	1.09985	0.645499	54.3097
8.52525	1.09985	0.645499	54.1088
8.62626	1.09985	0.645499	53.9076
8.72727	1.09985	0.645499	53.7063
8.82828	1.09985	0.645499	53.5048
8.92929	1.09985	0.645499	53.3032
9.0303	1.09985	0.645499	53.1015
9.13131	1.09985	0.645499	52.8997
9.23232	1.09985	0.645499	52.6979
9.33333	1.09985	0.645499	52.496
9.43434	1.09985	0.645499	52.2941
9.53535	1.09985	0.645499	52.0921
9.63636	1.09985	0.645499	51.8901
9.73737	1.09985	0.645499	51.688
9.83838	1.09985	0.645499	51.4859
9.93939	1.09985	0.645499	51.2836
10.0404	1.09985	0.645499	51.0813
10.1414	1.09985	0.645499	50.8787
10.2424	1.09985	0.645499	50.676
10.3434	1.09985	0.645499	50.4729
10.4444	1.09985	0.645499	50.2693
10.5455	1.09985	0.645499	50.0651
10.6465	1.09985	0.645499	49.86
10.7475	1.09985	0.645499	49.6537
10.8485	1.09985	0.645499	49.4459
10.9495	1.09985	0.645499	49.2359
11.0505	1.09985	0.645499	49.0234
11.1515	1.09985	0.645499	48.8075
11.2525	1.09985	0.645499	48.5877
11.3535	1.09985	0.645499	48.3631
11.4545	1.09985	0.645499	48.1331
11.5556	1.09985	0.645499	47.8971
11.6566	1.09985	0.645499	47.6548
11.7576	1.09985	0.645499	47.4058
11.8586	1.09985	0.645499	47.1501
11.9596	1.09985	0.645499	46.888
12.0606	1.09985	0.645499	46.6197
12.1616	1.09985	0.645499	46.3456
12.2626	1.09985	0.645499	46.0664
12.3636	1.09985	0.645499	45.7825
12.4646	1.09985	0.645499	45.4945
12.5657	1.09985	0.645499	45.2028
12.6667	1.09985	0.645499	44.9079
12.7677	1.09985	0.645499	44.6101
12.8687	1.09985	0.645499	44.3097
12.9697	1.09985	0.645499	44.0068
13.0707	1.09985	0.645499	43.7015
13.1717	1.09985	0.645499	43.3939
13.2727	1.09985	0.645499	43.0838
13.3737	1.09985	0.645499	42.7711
13.4747	1.09985	0.645499	42.4555
13.5758	1.09985	0.645499	42.1367
13.6768	1.09985	0.645499	41.8143
13.7778	1.09985	0.645499	41.4877
13.8788	1.09985	0.645499	41.1561
13.9798	1.09985	0.645499	40.8188
14.0808	1.09985	0.645499	40.4746
14.1818	1.09985	0.645499	40.1224
14.2828	1.09985	0.645499	39.7606
14.3838	1.09985	0.645499	39.3872
14.4848	1.09985	0.645499	39.0001
14.5859	1.09985	0.645499	38.5963
14.6869	1.09985	0.645499	38.1724
14.7879	1.09985	0.645499	37.7243
14.8889	1.09985	0.645499	37.2465
14.9899	1.09985	0.645499	36.7326
15.0909	1.09985	0.645499	36.1746
15.1919	1.09985	0.645499	35.5622
15.2929	1.09985	0.645499	34.8829
15.3939	1.09985	0.645499	34.1208
15.4949	1.09985	0.645499	33.2559
15.596	1.09985	0.645499	32.2625
15.697	1.09985	0.645499	31.1076
15.798	1.09985	0.645499	29.7479
15.899	1.09985	0.645499	28.1204
16	1.09985	0.645499	-inf
6	1.11412	0.688275	58.1815
6.10101	1.11412	0.688275	58.1213
6.20202	1.11412	0.688275	58.0498
6.30303	1.11412	0.688275	57.9645
6.40404	1.11412	0.688275	57.864
6.50505	1.11412	0.688275	57.7486
6.60606	1.11412	0.688275	57.619
6.70707	1.11412	0.688275	57.4769
6.80808	1.11412	0.688275	57.3239
6.90909	1.11412	0.688275	57.1617
7.0101	1.11412	0.688275	56.9919
7.11111	1.11412	0.688275	56.8157
7.21212	1.11412	0.688275	56.6345
7.31313	1.11412	0.688275	56.449
7.41414	1.11412	0.688275	56.2603
7.51515	1.11412	0.688275	56.0688
7.61616	1.11412	0.688275	55.8752
7.71717	1.11412	0.688275	55.6798
7.81818	1.11412	0.688275	55.4831
7.91919	1.11412	0.688275	55.2853
8.0202	1.11412	0.688275	55.0867
8.12121	1.11412	0.688275	54.8873
8.22222	1.11412	0.688275	54.6874
8.32323	1.11412	0.688275	54.487
8.42424	1.11412	0.688275	54.2863
8.52525	1.11412	0.688275	54.0854
8.62626	1.11412	0.688275	53.8842
8.72727	1.11412	0.688275	53.6828
8.82828	1.11412	0.688275	53.4813
8.92929	1.11412	0.688275	53.2797
9.0303	1.11412	0.688275	53.078
9.13131	1.11412	0.688275	52.8762
9.23232	1.11412	0.688275	52.6744
9.33333	1.11412	0.688275	52.4725
9.43434	1.11412	0.688275	52.2705
9.53535	1.11412	0.688275	52.0685
9.63636	1.11412	0.688275	51.8664
9.73737	1.11412	0.688275	51.6643
9.83838	1.11412	0.688275	51.4621
9.93939	1.11412	0.688275	51.2597
10.0404	1.11412	0.688275	51.0573
10.1414	1.11412	0.688275	50.8546
10.2424	1.11412	0.688275	50.6516
10.3434	1.11412	0.688275	50.4482
10.4444	1.11412	0.688275	50.2442
10.5455	1.11412	0.688275	50.0396
10.6465	1.11412	0.688275	49.8339
10.7475	1.11412	0.688275	49.6269
10.8485	1.11412	0.688275	49.4182
10.9495	1.11412	0.688275	49.2073
11.0505	1.11412	0.688275	48.9936
11.1515	1.11412	0.688275	48.7765
11.2525	1.11412	0.688275	48.5553
11.3535	1.11412	0.688275	48.3293
11.4545	1.11412	0.688275	48.0978
11.5556	1.11412	0.688275	47.8604
11.6566	1.11412	0.688275	47.6167
11.7576	1.11412	0.688275	47.3663
11.8586	1.11412	0.688275	47.1095
11.9596	1.11412	0.688275	46.8462
12.0606	1.11412	0.688275	46.5769
12.1616	1.11412	0.688275	46.3021
12.2626	1.11412	0.688275	46.0221
12.3636	1.11412	0.688275	45.7376
12.4646	1.11412	0.688275	45.4491
12.5657	1.11412	0.688275	45.157
12.6667	1.11412	0.688275	44.8618
12.7677	1.11412	0.688275	44.5637
12.8687	1.11412	0.688275	44.2631
12.9697	1.11412	0.688275	43.96
13.0707	1.11412	0.688275	43.6546
13.1717	1.11412	0.688275	43.3468
13.2727	1.11412	0.688275	43.0366
13.3737	1.11412	0.688275	42.7239
13.4747	1.11412	0.688275	42.4082
13.5758	1.11412	0.688275	42.0894
13.6768	1.11412	0.688275	41.767
13.7778	1.11412	0.688275	41.4403
13.8788	1.11412	0.688275	41.1087
13.9798	1.11412	0.688275	40.7714
14.0808	1.11412	0.688275	40.4272
14.1818	1.11412	0.688275	40.075
14.2828	1.11412	0.688275	39.7131
14.3838	1.11412	0.688275	39.3398
14.4848	1.11412	0.688275	38.9526
14.5859	1.11412	0.688275	38.5488
14.6869	1.11412	0.688275	38.125
14.7879	1.11412	0.688275	37.6768
14.8889	1.11412	0.688275	37.199
14.9899	1.11412	0.688275	36.6852
15.0909	1.11412	0.688275	36.1271
15.1919	1.11412	0.688275	35.5147
15.2929	1.11412	0.688275	34.8354
15.3939	1.11412	0.688275	34.0733
15.4949	1.11412	0.688275	33.2084
15.596	1.11412	0.688275	32.215
15.697	1.11412	0.688275	31.0602
15.798	1.11412	0.688275	29.7005
15.899	1.11412	0.688275	28.0729
16	1.11412	0.688275	-inf
6	1.12838	0.720787	58.1784
6.10101	1.12838	0.720787	58.1112
6.20202	1.12838	0.720787	58.0338
6.30303	1.12838	0.720787	57.9437
6.40404	1.12838	0.720787	57.8394
6.50505	1.12838	0.720787	57.7209
6.60606	1.12838	0.720787	57.589
6.70707	1.12838	0.720787	57.4451
6.80808	1.12838	0.720787	57.2907
6.90909	1.12838	0.720787	57.1274
7.0101	1.12838	0.720787	56.9568
7.11111	1.12838	0.720787	56.78
7.21212	1.12838	0.720787	56.5982
7.31313	1.12838	0.720787	56.4124
7.41414	1.12838	0.720787	56.2233
7.51515	1.12838	0.720787	56.0316
7.61616	1.12838	0.720787	55.8378
7.71717	1.12838	0.720787	55.6423
7.81818	1.12838	0.720787	55.4454
7.91919	1.12838	0.720787	55.2476
8.0202	1.12838	0.720787	55.0488
8.12121	1.12838	0.720787	54.8494
8.22222	1.12838	0.720787	54.6494
8.32323	1.12838	0.720787	54.449
8.42424	1.12838	0.720787	54.2483
8.52525	1.12838	0.720787	54.0473
8.62626	1.12838	0.720787	53.8461
8.72727	1.12838	0.720787	53.6447
8.82828	1.12838	0.720787	53.4432
8.92929	1.12838	0.720787	53.2416
9.0303	1.12838	0.720787	53.0398
9.13131	1.12838	0.720787	52.838
9.23232	1.12838	0.720787	52.6362
9.33333	1.12838	0.720787	52.4343
9.43434	1.12838	0.720787	52.2323
9.53535	1.12838	0.720787	52.0302
9.63636	1.12838	0.720787	51.8281
9.73737	1.12838	0.720787	51.6259
9.83838	1.12838	0.720787	51.4236
9.93939	1.12838	0.720787	51.2212
10.0404	1.12838	0.720787	51.0186
10.1414	1.12838	0.720787	50.8157
10.2424	1.12838	0.720787	50.6125
10.3434	1.12838	0.720787	50.4088
10.4444	1.12838	0.720787	50.2045
10.5455	1.12838	0.720787	49.9994
10.6465	1.12838	0.720787	49.7932
10.7475	1.12838	0.720787	49.5855
10.8485	1.12838	0.720787	49.3761
10.9495	1.12838	0.720787	49.1643
11.0505	1.12838	0.720787	48.9497
11.1515	1.12838	0.720787	48.7315
11.2525	1.12838	0.720787	48.5091
11.3535	1.12838	0.720787	48.2819
11.4545	1.12838	0.720787	48.0493
11.5556	1.12838	0.720787	47.8107
11.6566	1.12838	0.720787	47.5659
11.7576	1.12838	0.720787	47.3145
11.8586	1.12838	0.720787	47.0567
11.9596	1.12838	0.720787	46.7926
12.0606	1.12838	0.720787	46.5226
12.1616	1.12838	0.720787	46.247
12.2626	1.12838	0.720787	45.9666
12.3636	1.12838	0.720787	45.6816
12.4646	1.12838	0.720787	45.3927
12.5657	1.12838	0.720787	45.1003
12.6667	1.12838	0.720787	44.8049
12.7677	1.12838	0.720787	44.5066
12.8687	1.12838	0.720787	44.2058
12.9697	1.12838	0.720787	43.9026
13.0707	1.12838	0.720787	43.5971
13.1717	1.12838	0.720787	43.2892
13.2727	1.12838	0.720787	42.979
13.3737	1.12838	0.720787	42.6661
13.4747	1.12838	0.720787	42.3505
13.5758	1.12838	0.720787	42.0316
13.6768	1.12838	0.720787	41.7091
13.7778	1.12838	0.720787	41.3824
13.8788	1.12838	0.720787	41.0509
13.9798	1.12838	0.720787	40.7135
14.0808	1.12838	0.720787	40.3693
14.1818	1.12838	0.720787	40.0171
14.2828	1.12838	0.720787	39.6552
14.3838	1.12838	0.720787	39.2819
14.4848	1.12838	0.720787	38.8947
14.5859	1.12838	0.720787	38.4909
14.6869	1.12838	0.720787	38.0671
14.7879	1.12838	0.720787	37.6189
14.8889	1.12838	0.720787	37.1411
14.9899	1.12838	0.720787	36.6273
15.0909	1.12838	0.720787	36.0692
15.1919	1.12838	0.720787	35.4568
15.2929	1.12838	0.720787	34.7775
15.3939	1.12838	0.720787	34.0154
15.4949	1.12838	0.720787	33.1505
15.596	1.12838	0.720787	32.1571
15.697	1.12838	0.720787	31.0022
15.798	1.12838	0.720787	29.6426
15.899	1.12838	0.720787	28.015
16	1.12838	0.720787	-inf
6	1.14265	0.758568	58.1778
6.10101	1.14265	0.758568	58.1056
6.20202	1.14265	0.758568	58.0239
6.30303	1.14265	0.758568	57.9302
6.40404	1.14265	0.758568	57.8231
6.50505	1.14265	0.758568	57.7023
6.60606	1.14265	0.758568	57.5687
6.70707	1.14265	0.758568	57.4234
6.80808	1.14265	0.758568	57.268
6.90909	1.14265	0.758568	57.1039
7.0101	1.14265	0.758568	56.9326
7.11111	1.14265	0.758568	56.7553
7.21212	1.14265	0.758568	56.5732
7.31313	1.14265	0.758568	56.387
7.41414	1.14265	0.758568	56.1977
7.51515	1.14265	0.758568	56.0058
7.61616	1.14265	0.758568	55.8119
7.71717	1.14265	0.758568	55.6163
7.81818	1.14265	0.758568	55.4193
7.91919	1.14265	0.758568	55.2214
8.0202	1.14265	0.758568	55.0226
8.12121	1.14265	0.758568	54.8231
8.22222	1.14265	0.758568	54.6231
8.32323	1.14265	0.758568	54.4227
8.42424	1.14265	0.758568	54.2219
8.52525	1.14265	0.758568	54.0209
8.62626	1.14265	0.758568	53.8197
8.72727	1.14265	0.758568	53.6183
8.82828	1.14265	0.758568	53.4167
8.92929	1.14265	0.758568	53.2151
9.0303	1.14265	0.758568	53.0134
9.13131	1.14265	0.758568	52.8116
9.23232	1.14265	0.758568	52.6097
9.33333	1.14265	0.758568	52.4077
9.43434	1.14265	0.758568	52.2057
9.53535	1.14265	0.758568	52.0036
9.63636	1.14265	0.758568	51.8015
9.73737	1.14265	0.758568	51.5992
9.83838	1.14265	0.758568	51.3968
9.93939	1.14265	0.758568	51.1943
10.0404	1.14265	0.758568	50.9915
10.1414	1.14265	0.758568	50.7885
10.2424	1.14265	0.758568	50.5851
10.3434	1.14265	0.758568	50.3812
10.4444	1.14265	0.758568	50.1766
10.5455	1.14265	0.758568	49.9711
10.6465	1.14265	0.758568	49.7644
10.7475	1.14265	0.758568	49.5562
10.8485	1.14265	0.758568	49.3461
10.9495	1.14265	0.758568	49.1336
11.0505	1.14265	0.758568	48.9182
11.1515	1.14265	0.758568	48.6991
11.2525	1.14265	0.758568	48.4758
11.3535	1.14265	0.758568	48.2476
11.4545	1.14265	0.758568	48.014
11.5556	1.14265	0.758568	47.7744
11.6566	1.14265	0.758568	47.5286
11.7576	1.14265	0.758568	47.2763
11.8586	1.14265	0.758568	47.0177
11.9596	1.14265	0.758568	46.7528
12.0606	1.14265	0.758568	46.4821
12.1616	1.14265	0.758568	46.2061
12.2626	1.14265	0.758568	45.9251
12.3636	1.14265	0.758568	45.6397
12.4646	1.14265	0.758568	45.3505
12.5657	1.14265	0.758568	45.0578
12.6667	1.14265	0.758568	44.7621
12.7677	1.14265	0.758568	44.4637
12.8687	1.14265	0.758568	44.1627
12.9697	1.14265	0.758568	43.8594
13.0707	1.14265	0.758568	43.5538
13.1717	1.14265	0.758568	43.2458
13.2727	1.14265	0.758568	42.9355
13.3737	1.14265	0.758568	42.6227
13.4747	1.14265	0.758568	42.307
13.5758	1.14265	0.758568	41.9881
13.6768	1.14265	0.758568	41.6656
13.7778	1.14265	0.758568	41.3389
13.8788	1.14265	0.758568	41.0072
13.9798	1.14265	0.758568	40.6699
14.0808	1.14265	0.758568	40.3257
14.1818	1.14265	0.758568	39.9735
14.2828	1.14265	0.758568	39.6116
14.3838	1.14265	0.758568	39.2382
14.4848	1.14265	0.758568	38.851
14.5859	1.14265	0.758568	38.4473
14.6869	1.14265	0.758568	38.0234
14.7879	1.14265	0.758568	37.5752
14.8889	1.14265	0.758568	37.0975
14.9899	1.14265	0.758568	36.5836
15.0909	1.14265	0.758568	36.0255
15.1919	1.14265	0.758568	35.4131
15.2929	1.14265	0.758568	34.7338
15.3939	1.14265	0.758568	33.9717
15.4949	1.14265	0.758568	33.1068
15.596	1.14265	0.758568	32.1135
15.697	1.14265	0.758568	30.9586
15.798	1.14265	0.758568	29.5989
15.899	1.14265	0.758568	27.9714
16	1.14265	0.758568	-inf
6	1.15691	0.78801	58.1627
6.10101	1.15691	0.78801	58.086
6.20202	1.15691	0.78801	58.0005
6.30303	1.15691	0.78801	57.9037
6.40404	1.15691	0.78801	57.794
6.50505	1.15691	0.78801	57.6713
6.60606	1.15691	0.78801	57.5361
6.70707	1.15691	0.78801	57.3896
6.80808	1.15691	0.78801	57.2332
6.90909	1.15691	0.78801	57.0684
7.0101	1.15691	0.78801	56.8965
7.11111	1.15691	0.78801	56.7188
7.21212	1.15691	0.78801	56.5363
7.31313	1.15691	0.78801	56.3499
7.41414	1.15691	0.78801	56.1603
7.51515	1.15691	0.78801	55.9683
7.61616	1.15691	0.78801	55.7742
7.71717	1.15691	0.78801	55.5784
7.81818	1.15691	0.78801	55.3814
7.91919	1.15691	0.78801	55.1834
8.0202	1.15691	0.78801	54.9845
8.12121	1.15691	0.78801	54.785
8.22222	1.15691	0.78801	54.585
8.32323	1.15691	0.78801	54.3846
8.42424	1.15691	0.78801	54.1838
8.52525	1.15691	0.78801	53.9827
8.62626	1.15691	0.78801	53.7815
8.72727	1.15691	0.78801	53.5801
8.82828	1.15691	0.78801	53.3785
8.92929	1.15691	0.78801	53.1769
9.0303	1.15691	0.78801	52.9751
9.13131	1.15691	0.78801	52.7733
9.23232	1.15691	0.78801	52.5714
9.33333	1.15691	0.78801	52.3694
9.43434	1.15691	0.78801	52.1674
9.53535	1.15691	0.78801	51.9653
9.63636	1.15691	0.78801	51.7631
9.73737	1.15691	0.78801	51.5607
9.83838	1.15691	0.78801	51.3583
9.93939	1.15691	0.78801	51.1556
10.0404	1.15691	0.78801	50.9528
10.1414	1.15691	0.78801	50.7496
10.2424	1.15691	0.78801	50.546
10.3434	1.15691	0.78801	50.3418
10.4444	1.15691	0.78801	50.1369
10.5455	1.15691	0.78801	49.931
10.6465	1.15691	0.78801	49.724
10.7475	1.15691	0.78801	49.5153
10.8485	1.15691	0.78801	49.3046
10.9495	1.15691	0.78801	49.0915
11.0505	1.15691	0.78801	48.8753
11.1515	1.15691	0.78801	48.6555
11.2525	1.15691	0.78801	48.4314
11.3535	1.15691	0.78801	48.2024
11.4545	1.15691	0.78801	47.9679
11.5556	1.15691	0.78801	47.7275
11.6566	1.15691	0.78801	47.4809
11.7576	1.15691	0.78801	47.2279
11.8586	1.15691	0.78801	46.9686
11.9596	1.15691	0.78801	46.7031
12.0606	1.15691	0.78801	46.4319
12.1616	1.15691	0.78801	46.1554
12.2626	1.15691	0.78801	45.8741
12.3636	1.15691	0.78801	45.5884
12.4646	1.15691	0.78801	45.2989
12.5657	1.15691	0.78801	45.006
12.6667	1.15691	0.78801	44.7101
12.7677	1.15691	0.78801	44.4115
12.8687	1.15691	0.78801	44.1104
12.9697	1.15691	0.78801	43.807
13.0707	1.15691	0.78801	43.5013
13.1717	1.15691	0.78801	43.1933
13.2727	1.15691	0.78801	42.883
13.3737	1.15691	0.78801	42.5701
13.4747	1.15691	0.78801	42.2543
13.5758	1.15691	0.78801	41.9354
13.6768	1.15691	0.78801	41.6129
13.7778	1.15691	0.78801	41.2862
13.8788	1.15691	0.78801	40.9545
13.9798	1.15691	0.78801	40.6172
14.0808	1.15691	0.78801	40.273
14.1818	1.15691	0.78801	39.9207
14.2828	1.15691	0.78801	39.5589
14.3838	1.15691	0.78801	39.1855
14.4848	1.15691	0.78801	38.7983
14.5859	1.15691	0.78801	38.3945
14.6869	1.15691	0.78801	37.9707
14.7879	1.15691	0.78801	37.5225
14.8889	1.15691	0.78801	37.0447
14.9899	1.15691	0.78801	36.5309
15.0909	1.15691	0.78801	35.9728
15.1919	1.15691	0.78801	35.3604
15.2929	1.15691	0.78801	34.6811
15.3939	1.15691	0.78801	33.919
15.4949	1.15691	0.78801	33.0541
15.596	1.15691	0.78801	32.0607
15.697	1.15691	0.78801	30.9059
15.798	1.15691	0.78801	29.5462
15.899	1.15691	0.78801	27.9187
16	1.15691	0.78801	-inf
6	1.17118	0.819365	58.148
6.10101	1.17118	0.819365	58.0679
6.20202	1.17118	0.819365	57.9794
6.30303	1.17118	0.819365	57.88
6.40404	1.17118	0.819365	57.7683
6.50505	1.17118	0.819365	57.644
6.60606	1.17118	0.819365	57.5076
6.70707	1.17118	0.819365	57.3601
6.80808	1.17118	0.819365	57.2029
6.90909	1.17118	0.819365	57.0375
7.0101	1.17118	0.819365	56.8652
7.11111	1.17118	0.819365	56.6871
7.21212	1.17118	0.819365	56.5043
7.31313	1.17118	0.819365	56.3177
7.41414	1.17118	0.819365	56.128
7.51515	1.17118	0.819365	55.9358
7.61616	1.17118	0.819365	55.7416
7.71717	1.17118	0.819365	55.5458
7.81818	1.17118	0.819365	55.3487
7.91919	1.17118	0.819365	55.1506
8.0202	1.17118	0.819365	54.9517
8.12121	1.17118	0.819365	54.7521
8.22222	1.17118	0.819365	54.5521
8.32323	1.17118	0.819365	54.3516
8.42424	1.17118	0.819365	54.1508
8.52525	1.17118	0.819365	53.9498
8.62626	1.17118	0.819365	53.7485
8.72727	1.17118	0.819365	53.5471
8.82828	1.17118	0.819365	53.3455
8.92929	1.17118	0.819365	53.1439
9.0303	1.17118	0.819365	52.9421
9.13131	1.17118	0.819365	52.7402
9.23232	1.17118	0.819365	52.5383
9.33333	1.17118	0.819365	52.3363
9.43434	1.17118	0.819365	52.1343
9.53535	1.17118	0.819365	51.9321
9.63636	1.17118	0.819365	51.7299
9.73737	1.17118	0.819365	51.5275
9.83838	1.17118	0.819365	51.3249
9.93939	1.17118	0.819365	51.1222
10.0404	1.17118	0.819365	50.9192
10.1414	1.17118	0.819365	50.7159
10.2424	1.17118	0.819365	50.5121
10.3434	1.17118	0.819365	50.3077
10.4444	1.17118	0.819365	50.1025
10.5455	1.17118	0.819365	49.8964
10.6465	1.17118	0.819365	49.6889
10.7475	1.17118	0.819365	49.4798
10.8485	1.17118	0.819365	49.2687
10.9495	1.17118	0.819365	49.055
11.0505	1.17118	0.819365	48.8382
11.1515	1.17118	0.819365	48.6177
11.2525	1.17118	0.819365	48.3928
11.3535	1.17118	0.819365	48.1631
11.4545	1.17118	0.819365	47.9279
11.5556	1.17118	0.819365	47.6868
11.6566	1.17118	0.819365	47.4394
11.7576	1.17118	0.819365	47.1858
11.8586	1.17118	0.819365	46.9258
11.9596	1.17118	0.819365	46.6599
12.0606	1.17118	0.819365	46.3882
12.1616	1.17118	0.819365	46.1112
12.2626	1.17118	0.819365	45.8295
12.3636	1.17118	0.819365	45.5435
12.4646	1.17118	0.819365	45.2538
12.5657	1.17118	0.819365	44.9607
12.6667	1.17118	0.819365	44.6646
12.7677	1.17118	0.819365	44.3659
12.8687	1.17118	0.819365	44.0647
12.9697	1.17118	0.819365	43.7612
13.0707	1.17118	0.819365	43.4554
13.1717	1.17118	0.819365	43.1474
13.2727	1.17118	0.819365	42.837
13.3737	1.17118	0.819365	42.524
13.4747	1.17118	0.819365	42.2083
13.5758	1.17118	0.819365	41.8893
13.6768	1.17118	0.819365	41.5668
13.7778	1.17118	0.819365	41.2401
13.8788	1.17118	0.819365	40.9084
13.9798	1.17118	0.819365	40.571
14.0808	1.17118	0.819365	40.2269
14.1818	1.17118	0.819365	39.8746
14.2828	1.17118	0.819365	39.5127
14.3838	1.17118	0.819365	39.1393
14.4848	1.17118	0.819365	38.7522
14.5859	1.17118	0.819365	38.3484
14.6869	1.17118	0.819365	37.9245
14.7879	1.17118	0.819365	37.4763
14.8889	1.17118	0.819365	36.9986
14.9899	1.17118	0.819365	36.4847
15.0909	1.17118	0.819365	35.9266
15.1919	1.17118	0.819365	35.3142
15.2929	1.17118	0.819365	34.6349
15.3939	1.17118	0.819365	33.8728
15.4949	1.17118	0.819365	33.0079
15.596	1.17118	0.819365	32.0146
15.697	1.17118	0.819365	30.8597
15.798	1.17118	0.819365	29.5
15.899	1.17118	0.819365	27.8725
16	1.17118	0.819365	-inf
6	1.18544	0.853107	58.1353
6.10101	1.18544	0.853107	58.0524
6.20202	1.18544	0.853107	57.9615
6.30303	1.18544	0.853107	57.8601
6.40404	1.18544	0.853107	57.7468
6.50505	1.18544	0.853107	57.6211
6.60606	1.18544	0.853107	57.4837
6.70707	1.18544	0.853107	57.3354
6.80808	1.18544	0.853107	57.1776
6.90909	1.18544	0.853107	57.0118
7.0101	1.18544	0.853107	56.839
7.11111	1.18544	0.853107	56.6606
7.21212	1.18544	0.853107	56.4776
7.31313	1.18544	0.853107	56.2908
7.41414	1.18544	0.853107	56.101
7.51515	1.18544	0.853107	55.9086
7.61616	1.18544	0.853107	55.7143
7.71717	1.18544	0.853107	55.5185
7.81818	1.18544	0.853107	55.3213
7.91919	1.18544	0.853107	55.1232
8.0202	1.18544	0.853107	54.9243
8.12121	1.18544	0.853107	54.7247
8.22222	1.18544	0.853107	54.5246
8.32323	1.18544	0.853107	54.3241
8.42424	1.18544	0.853107	54.1233
8.52525	1.18544	0.853107	53.9223
8.62626	1.18544	0.853107	53.721
8.72727	1.18544	0.853107	53.5196
8.82828	1.18544	0.853107	53.318
8.92929	1.18544	0.853107	53.1163
9.0303	1.18544	0.853107	52.9145
9.13131	1.18544	0.853107	52.7127
9.23232	1.18544	0.853107	52.5107
9.33333	1.18544	0.853107	52.3087
9.43434	1.18544	0.853107	52.1066
9.53535	1.18544	0.853107	51.9044
9.63636	1.18544	0.853107	51.7021
9.73737	1.18544	0.853107	51.4997
9.83838	1.18544	0.853107	51.2971
9.93939	1.18544	0.853107	51.0943
10.0404	1.18544	0.853107	50.8912
10.1414	1.18544	0.853107	50.6877
10.2424	1.18544	0.853107	50.4837
10.3434	1.18544	0.853107	50.2792
10.4444	1.18544	0.853107	50.0738
10.5455	1.18544	0.853107	49.8673
10.6465	1.18544	0.853107	49.6595
10.7475	1.18544	0.853107	49.45
10.8485	1.18544	0.853107	49.2384
10.9495	1.18544	0.853107	49.0242
11.0505	1.18544	0.853107	48.8069
11.1515	1.18544	0.853107	48.5858
11.2525	1.18544	0.853107	48.3603
11.3535	1.18544	0.853107	48.1299
11.4545	1.18544	0.853107	47.8939
11.5556	1.18544	0.853107	47.6521
11.6566	1.18544	0.853107	47.4041
11.7576	1.18544	0.853107	47.1499
11.8586	1.18544	0.853107	46.8893
11.9596	1.18544	0.853107	46.6228
12.0606	1.18544	0.853107	46.3507
12.1616	1.18544	0.853107	46.0733
12.2626	1.18544	0.853107	45.7912
12.3636	1.18544	0.853107	45.505
12.4646	1.18544	0.853107	45.215
12.5657	1.18544	0.853107	44.9217
12.6667	1.18544	0.853107	44.6254
12.7677	1.18544	0.853107	44.3266
12.8687	1.18544	0.853107	44.0253
12.9697	1.18544	0.853107	43.7217
13.0707	1.18544	0.853107	43.4158
13.1717	1.18544	0.853107	43.1077
13.2727	1.18544	0.853107	42.7973
13.3737	1.18544	0.853107	42.4843
13.4747	1.18544	0.853107	42.1685
13.5758	1.18544	0.853107	41.8495
13.6768	1.18544	0.853107	41.527
13.7778	1.18544	0.853107	41.2002
13.8788	1.18544	0.853107	40.8686
13.9798	1.18544	0.853107	40.5312
14.0808	1.18544	0.853107	40.187
14.1818	1.18544	0.853107	39.8347
14.2828	1.18544	0.853107	39.4729
14.3838	1.18544	0.853107	39.0995
14.4848	1.18544	0.853107	38.7123
14.5859	1.18544	0.853107	38.3085
14.6869	1.18544	0.853107	37.8847
14.7879	1.18544	0.853107	37.4365
14.8889	1.18544	0.853107	36.9587
14.9899	1.18544	0.853107	36.4448
15.0909	1.18544	0.853107	35.8868
15.1919	1.18544	0.853107	35.2744
15.2929	1.18544	0.853107	34.5951
15.3939	1.18544	0.853107	33.833
15.4949	1.18544	0.853107	32.9681
15.596	1.18544	0.853107	31.9747
15.697	1.18544	0.853107	30.8198
15.798	1.18544	0.853107	29.4601
15.899	1.18544	0.853107	27.8326
16	1.18544	0.853107	-inf
6	1.19971	0.880071	58.1119
6.10101	1.19971	0.880071	58.0265
6.20202	1.19971	0.880071	57.9334
6.30303	1.19971	0.880071	57.8301
6.40404	1.19971	0.880071	57.7153
6.50505	1.19971	0.880071	57.5885
6.60606	1.19971	0.880071	57.4501
6.70707	1.19971	0.880071	57.3011
6.80808	1.19971	0.880071	57.1427
6.90909	1.19971	0.880071	56.9764
7.0101	1.19971	0.880071	56.8033
7.11111	1.19971	0.880071	56.6247
7.21212	1.19971	0.880071	56.4414
7.31313	1.19971	0.880071	56.2545
7.41414	1.19971	0.880071	56.0645
7.51515	1.19971	0.880071	55.872
7.61616	1.19971	0.880071	55.6777
7.71717	1.19971	0.880071	55.4817
7.81818	1.19971	0.880071	55.2845
7.91919	1.19971	0.880071	55.0864
8.0202	1.19971	0.880071	54.8874
8.12121	1.19971	0.880071	54.6878
8.22222	1.19971	0.880071	54.4877
8.32323	1.19971	0.880071	54.2872
8.42424	1.19971	0.880071	54.0864
8.52525	1.19971	0.880071	53.8853
8.62626	1.19971	0.880071	53.684
8.72727	1.19971	0.880071	53.4826
8.82828	1.19971	0.880071	53.281
8.92929	1.19971	0.880071	53.0793
9.0303	1.19971	0.880071	52.8775
9.13131	1.19971	0.880071	52.6756
9.23232	1.19971	0.880071	52.4737
9.33333	1.19971	0.880071	52.2716
9.43434	1.19971	0.880071	52.0695
9.53535	1.19971	0.880071	51.8673
9.63636	1.19971	0.880071	51.6649
9.73737	1.19971	0.880071	51.4624
9.83838	1.19971	0.880071	51.2598
9.93939	1.19971	0.880071	51.0569
10.0404	1.19971	0.880071	50.8537
10.1414	1.19971	0.880071	50.6501
10.2424	1.19971	0.880071	50.446
10.3434	1.19971	0.880071	50.2412
10.4444	1.19971	0.880071	50.0356
10.5455	1.19971	0.880071	49.8289
10.6465	1.19971	0.880071	49.6208
10.7475	1.19971	0.880071	49.4109
10.8485	1.19971	0.880071	49.1989
10.9495	1.19971	0.880071	48.9843
11.0505	1.19971	0.880071	48.7664
11.1515	1.19971	0.880071	48.5447
11.2525	1.19971	0.880071	48.3187
11.3535	1.19971	0.880071	48.0877
11.4545	1.19971	0.880071	47.8512
11.5556	1.19971	0.880071	47.6088
11.6566	1.19971	0.880071	47.3602
11.7576	1.19971	0.880071	47.1054
11.8586	1.19971	0.880071	46.8444
11.9596	1.19971	0.880071	46.5775
12.0606	1.19971	0.880071	46.3049
12.1616	1.19971	0.880071	46.0272
12.2626	1.19971	0.880071	45.7449
12.3636	1.19971	0.880071	45.4584
12.4646	1.19971	0.880071	45.1681
12.5657	1.19971	0.880071	44.8747
12.6667	1.19971	0.880071	44.5783
12.7677	1.19971	0.880071	44.2793
12.8687	1.19971	0.880071	43.9779
12.9697	1.19971	0.880071	43.6743
13.0707	1.19971	0.880071	43.3684
13.1717	1.19971	0.880071	43.0602
13.2727	1.19971	0.880071	42.7497
13.3737	1.19971	0.880071	42.4367
13.4747	1.19971	0.880071	42.1209
13.5758	1.19971	0.880071	41.8019
13.6768	1.19971	0.880071	41.4793
13.7778	1.19971	0.880071	41.1526
13.8788	1.19971	0.880071	40.8209
13.9798	1.19971	0.880071	40.4835
14.0808	1.19971	0.880071	40.1393
14.1818	1.19971	0.880071	39.7871
14.2828	1.19971	0.880071	39.4252
14.3838	1.19971	0.880071	39.0518
14.4848	1.19971	0.880071	38.6646
14.5859	1.19971	0.880071	38.2608
14.6869	1.19971	0.880071	37.837
14.7879	1.19971	0.880071	37.3888
14.8889	1.19971	0.880071	36.911
14.9899	1.19971	0.880071	36.3972
15.0909	1.19971	0.880071	35.8391
15.1919	1.19971	0.880071	35.2267
15.2929	1.19971	0.880071	34.5474
15.3939	1.19971	0.880071	33.7853
15.4949	1.19971	0.880071	32.9204
15.596	1.19971	0.880071	31.927
15.697	1.19971	0.880071	30.7721
15.798	1.19971	0.880071	29.4124
15.899	1.19971	0.880071	27.7849
16	1.19971	0.880071	-inf
6	1.21397	0.910139	58.0922
6.10101	1.21397	0.910139	58.0047
6.20202	1.21397	0.910139	57.9098
6.30303	1.21397	0.910139	57.8051
6.40404	1.21397	0.910139	57.689
6.50505	1.21397	0.910139	57.5612
6.60606	1.21397	0.910139	57.422
6.70707	1.21397	0.910139	57.2724
6.80808	1.21397	0.910139	57.1136
6.90909	1.21397	0.910139	56.9469
7.0101	1.21397	0.910139	56.7736
7.11111	1.21397	0.910139	56.5947
7.21212	1.21397	0.910139	56.4113
7.31313	1.21397	0.910139	56.2242
7.41414	1.21397	0.910139	56.0341
7.51515	1.21397	0.910139	55.8415
7.61616	1.21397	0.910139	55.6471
7.71717	1.21397	0.910139	55.4511
7.81818	1.21397	0.910139	55.2539
7.91919	1.21397	0.910139	55.0557
8.0202	1.21397	0.910139	54.8567
8.12121	1.21397	0.910139	54.6571
8.22222	1.21397	0.910139	54.4569
8.32323	1.21397	0.910139	54.2564
8.42424	1.21397	0.910139	54.0556
8.52525	1.21397	0.910139	53.8545
8.62626	1.21397	0.910139	53.6532
8.72727	1.21397	0.910139	53.4517
8.82828	1.21397	0.910139	53.2502
8.92929	1.21397	0.910139	53.0484
9.0303	1.21397	0.910139	52.8466
9.13131	1.21397	0.910139	52.6448
9.23232	1.21397	0.910139	52.4428
9.33333	1.21397	0.910139	52.2407
9.43434	1.21397	0.910139	52.0386
9.53535	1.21397	0.910139	51.8363
9.63636	1.21397	0.910139	51.6339
9.73737	1.21397	0.910139	51.4314
9.83838	1.21397	0.910139	51.2287
9.93939	1.21397	0.910139	51.0257
10.0404	1.21397	0.910139	50.8224
10.1414	1.21397	0.910139	50.6187
10.2424	1.21397	0.910139	50.4144
10.3434	1.21397	0.910139	50.2095
10.4444	1.21397	0.910139	50.0037
10.5455	1.21397	0.910139	49.7967
10.6465	1.21397	0.910139	49.5883
10.7475	1.21397	0.910139	49.3781
10.8485	1.21397	0.910139	49.1658
10.9495	1.21397	0.910139	48.9507
11.0505	1.21397	0.910139	48.7323
11.1515	1.21397	0.910139	48.5102
11.2525	1.21397	0.910139	48.2836
11.3535	1.21397	0.910139	48.052
11.4545	1.21397	0.910139	47.8149
11.5556	1.21397	0.910139	47.572
11.6566	1.21397	0.910139	47.3229
11.7576	1.21397	0.910139	47.0675
11.8586	1.21397	0.910139	46.806
11.9596	1.21397	0.910139	46.5386
12.0606	1.21397	0.910139	46.2657
12.1616	1.21397	0.910139	45.9876
12.2626	1.21397	0.910139	45.705
12.3636	1.21397	0.910139	45.4182
12.4646	1.21397	0.910139	45.1278
12.5657	1.21397	0.910139	44.8342
12.6667	1.21397	0.910139	44.5376
12.7677	1.21397	0.910139	44.2385
12.8687	1.21397	0.910139	43.937
12.9697	1.21397	0.910139	43.6333
13.0707	1.21397	0.910139	43.3273
13.1717	1.21397	0.910139	43.0191
13.2727	1.21397	0.910139	42.7086
13.3737	1.21397	0.910139	42.3956
13.4747	1.21397	0.910139	42.0797
13.5758	1.21397	0.910139	41.7607
13.6768	1.21397	0.910139	41.4381
13.7778	1.21397	0.910139	41.1114
13.8788	1.21397	0.910139	40.7797
13.9798	1.21397	0.910139	40.4423
14.0808	1.21397	0.910139	40.0981
14.1818	1.21397	0.910139	39.7458
14.2828	1.21397	0.910139	39.3839
14.3838	1.21397	0.910139	39.0105
14.4848	1.21397	0.910139	38.6234
14.5859	1.21397	0.910139	38.2196
14.6869	1.21397	0.910139	37.7957
14.7879	1.21397	0.910139	37.3475
14.8889	1.21397	0.910139	36.8698
14.9899	1.21397	0.910139	36.3559
15.0909	1.21397	0.910139	35.7978
15.1919	1.21397	0.910139	35.1854
15.2929	1.21397	0.910139	34.5061
15.3939	1.21397	0.910139	33.744
15.4949	1.21397	0.910139	32.8791
15.596	1.21397	0.910139	31.8857
15.697	1.21397	0.910139	30.7309
15.798	1.21397	0.910139	29.3712
15.899	1.21397	0.910139	27.7437
16	1.21397	0.910139	-inf
6	1.22824	0.938811	58.0699
6.10101	1.22824	0.938811	57.9806
6.20202	1.22824	0.938811	57.8842
6.30303	1.22824	0.938811	57.7782
6.40404	1.22824	0.938811	57.6611
6.50505	1.22824	0.938811	57.5324
6.60606	1.22824	0.938811	57.3925
6.70707	1.22824	0.938811	57.2424
6.80808	1.22824	0.938811	57.0832
6.90909	1.22824	0.938811	56.9161
7.0101	1.22824	0.938811	56.7425
7.11111	1.22824	0.938811	56.5634
7.21212	1.22824	0.938811	56.3799
7.31313	1.22824	0.938811	56.1926
7.41414	1.22824	0.938811	56.0024
7.51515	1.22824	0.938811	55.8099
7.61616	1.22824	0.938811	55.6154
7.71717	1.22824	0.938811	55.4193
7.81818	1.22824	0.938811	55.2221
7.91919	1.22824	0.938811	55.0238
8.0202	1.22824	0.938811	54.8248
8.12121	1.22824	0.938811	54.6252
8.22222	1.22824	0.938811	54.425
8.32323	1.22824	0.938811	54.2245
8.42424	1.22824	0.938811	54.0236
8.52525	1.22824	0.938811	53.8225
8.62626	1.22824	0.938811	53.6212
8.72727	1.22824	0.938811	53.4198
8.82828	1.22824	0.938811	53.2182
8.92929	1.22824	0.938811	53.0165
9.0303	1.22824	0.938811	52.8146
9.13131	1.22824	0.938811	52.6127
9.23232	1.22824	0.938811	52.4107
9.33333	1.22824	0.938811	52.2087
9.43434	1.22824	0.938811	52.0065
9.53535	1.22824	0.938811	51.8042
9.63636	1.22824	0.938811	51.6018
9.73737	1.22824	0.938811	51.3992
9.83838	1.22824	0.938811	51.1964
9.93939	1.22824	0.938811	50.9934
10.0404	1.22824	0.938811	50.79
10.1414	1.22824	0.938811	50.5861
10.2424	1.22824	0.938811	50.3818
10.3434	1.22824	0.938811	50.1767
10.4444	1.22824	0.938811	49.9706
10.5455	1.22824	0.938811	49.7635
10.6465	1.22824	0.938811	49.5548
10.7475	1.22824	0.938811	49.3443
10.8485	1.22824	0.938811	49.1316
10.9495	1.22824	0.938811	48.9161
11.0505	1.22824	0.938811	48.6974
11.1515	1.22824	0.938811	48.4747
11.2525	1.22824	0.938811	48.2476
11.3535	1.22824	0.938811	48.0155
11.4545	1.22824	0.938811	47.7779
11.5556	1.22824	0.938811	47.5344
11.6566	1.22824	0.938811	47.2848
11.7576	1.22824	0.938811	47.0289
11.8586	1.22824	0.938811	46.767
11.9596	1.22824	0.938811	46.4992
12.0606	1.22824	0.938811	46.2259
12.1616	1.22824	0.938811	45.9475
12.2626	1.22824	0.938811	45.6645
12.3636	1.22824	0.938811	45.3775
12.4646	1.22824	0.938811	45.0869
12.5657	1.22824	0.938811	44.7931
12.6667	1.22824	0.938811	44.4964
12.7677	1.22824	0.938811	44.1972
12.8687	1.22824	0.938811	43.8956
12.9697	1.22824	0.938811	43.5918
13.0707	1.22824	0.938811	43.2858
13.1717	1.22824	0.938811	42.9776
13.2727	1.22824	0.938811	42.667
13.3737	1.22824	0.938811	42.3539
13.4747	1.22824	0.938811	42.0381
13.5758	1.22824	0.938811	41.719
13.6768	1.22824	0.938811	41.3964
13.7778	1.22824	0.938811	41.0696
13.8788	1.22824	0.938811	40.738
13.9798	1.22824	0.938811	40.4006
14.0808	1.22824	0.938811	40.0563
14.1818	1.22824	0.938811	39.7041
14.2828	1.22824	0.938811	39.3422
14.3838	1.22824	0.938811	38.9688
14.4848	1.22824	0.938811	38.5816
14.5859	1.22824	0.938811	38.1778
14.6869	1.22824	0.938811	37.754
14.7879	1.22824	0.938811	37.3058
14.8889	1.22824	0.938811	36.828
14.9899	1.22824	0.938811	36.3141
15.0909	1.22824	0.938811	35.756
15.1919	1.22824	0.938811	35.1437
15.2929	1.22824	0.938811	34.4643
15.3939	1.22824	0.938811	33.7023
15.4949	1.22824	0.938811	32.8373
15.596	1.22824	0.938811	31.844
15.697	1.22824	0.938811	30.6891
15.798	1.22824	0.938811	29.3294
15.899	1.22824	0.938811	27.7019
16	1.22824	0.938811	-inf
6	1.2425	0.96632	58.0456
6.10101	1.2425	0.96632	57.9548
6.20202	1.2425	0.96632	57.857
6.30303	1.2425	0.96632	57.7498
6.40404	1.2425	0.96632	57.6317
6.50505	1.2425	0.96632	57.5023
6.60606	1.2425	0.96632	57.3619
6.70707	1.2425	0.96632	57.2113
6.80808	1.2425	0.96632	57.0517
6.90909	1.2425	0.96632	56.8844
7.0101	1.2425	0.96632	56.7105
7.11111	1.2425	0.96632	56.5313
7.21212	1.2425	0.96632	56.3475
7.31313	1.2425	0.96632	56.1602
7.41414	1.2425	0.96632	55.9699
7.51515	1.2425	0.96632	55.7773
7.61616	1.2425	0.96632	55.5827
7.71717	1.2425	0.96632	55.3866
7.81818	1.2425	0.96632	55.1893
7.91919	1.2425	0.96632	54.9911
8.0202	1.2425	0.96632	54.792
8.12121	1.2425	0.96632	54.5924
8.22222	1.2425	0.96632	54.3922
8.32323	1.2425	0.96632	54.1917
8.42424	1.2425	0.96632	53.9908
8.52525	1.2425	0.96632	53.7897
8.62626	1.2425	0.96632	53.5884
8.72727	1.2425	0.96632	53.3869
8.82828	1.2425	0.96632	53.1853
8.92929	1.2425	0.96632	52.9836
9.0303	1.2425	0.96632	52.7818
9.13131	1.2425	0.96632	52.5798
9.23232	1.2425	0.96632	52.3778
9.33333	1.2425	0.96632	52.1757
9.43434	1.2425	0.96632	51.9735
9.53535	1.2425	0.96632	51.7712
9.63636	1.2425	0.96632	51.5687
9.73737	1.2425	0.96632	51.3661
9.83838	1.2425	0.96632	51.1633
9.93939	1.2425	0.96632	50.9602
10.0404	1.2425	0.96632	50.7567
10.1414	1.2425	0.96632	50.5527
10.2424	1.2425	0.96632	50.3482
10.3434	1.2425	0.96632	50.143
10.4444	1.2425	0.96632	49.9368
10.5455	1.2425	0.96632	49.7294
10.6465	1.2425	0.96632	49.5205
10.7475	1.2425	0.96632	49.3097
10.8485	1.2425	0.96632	49.0967
10.9495	1.2425	0.96632	48.8808
11.0505	1.2425	0.96632	48.6617
11.1515	1.2425	0.96632	48.4386
11.2525	1.2425	0.96632	48.211
11.3535	1.2425	0.96632	47.9784
11.4545	1.2425	0.96632	47.7403
11.5556	1.2425	0.96632	47.4963
11.6566	1.2425	0.96632	47.2462
11.7576	1.2425	0.96632	46.9899
11.8586	1.2425	0.96632	46.7275
11.9596	1.2425	0.96632	46.4593
12.0606	1.2425	0.96632	46.1856
12.1616	1.2425	0.96632	45.9069
12.2626	1.2425	0.96632	45.6237
12.3636	1.2425	0.96632	45.3365
12.4646	1.2425	0.96632	45.0456
12.5657	1.2425	0.96632	44.7517
12.6667	1.2425	0.96632	44.4549
12.7677	1.2425	0.96632	44.1556
12.8687	1.2425	0.96632	43.8539
12.9697	1.2425	0.96632	43.55
13.0707	1.2425	0.96632	43.2439
13.1717	1.2425	0.96632	42.9356
13.2727	1.2425	0.96632	42.625
13.3737	1.2425	0.96632	42.3119
13.4747	1.2425	0.96632	41.996
13.5758	1.2425	0.96632	41.677
13.6768	1.2425	0.96632	41.3544
13.7778	1.2425	0.96632	41.0276
13.8788	1.2425	0.96632	40.6959
13.9798	1.2425	0.96632	40.3585
14.0808	1.2425	0.96632	40.0143
14.1818	1.2425	0.96632	39.662
14.2828	1.2425	0.96632	39.3001
14.3838	1.2425	0.96632	38.9267
14.4848	1.2425	0.96632	38.5395
14.5859	1.2425	0.96632	38.1357
14.6869	1.2425	0.96632	37.7119
14.7879	1.2425	0.96632	37.2637
14.8889	1.2425	0.96632	36.7859
14.9899	1.2425	0.96632	36.272
15.0909	1.2425	0.96632	35.7139
15.1919	1.2425	0.96632	35.1016
15.2929	1.2425	0.96632	34.4222
15.3939	1.2425	0.96632	33.6602
15.4949	1.2425	0.96632	32.7952
15.596	1.2425	0.96632	31.8019
15.697	1.2425	0.96632	30.647
15.798	1.2425	0.96632	29.2873
15.899	1.2425	0.96632	27.6598
16	1.2425	0.96632	-inf
6	1.25676	0.992868	58.0196
6.10101	1.25676	0.992868	57.9275
6.20202	1.25676	0.992868	57.8285
6.30303	1.25676	0.992868	57.7203
6.40404	1.25676	0.992868	57.6014
6.50505	1.25676	0.992868	57.4713
6.60606	1.25676	0.992868	57.3303
6.70707	1.25676	0.992868	57.1793
6.80808	1.25676	0.992868	57.0194
6.90909	1.25676	0.992868	56.8518
7.0101	1.25676	0.992868	56.6777
7.11111	1.25676	0.992868	56.4983
7.21212	1.25676	0.992868	56.3145
7.31313	1.25676	0.992868	56.127
7.41414	1.25676	0.992868	55.9367
7.51515	1.25676	0.992868	55.744
7.61616	1.25676	0.992868	55.5494
7.71717	1.25676	0.992868	55.3533
7.81818	1.25676	0.992868	55.1559
7.91919	1.25676	0.992868	54.9576
8.0202	1.25676	0.992868	54.7586
8.12121	1.25676	0.992868	54.5589
8.22222	1.25676	0.992868	54.3587
8.32323	1.25676	0.992868	54.1582
8.42424	1.25676	0.992868	53.9573
8.52525	1.25676	0.992868	53.7562
8.62626	1.25676	0.992868	53.5549
8.72727	1.25676	0.992868	53.3534
8.82828	1.25676	0.992868	53.1518
8.92929	1.25676	0.992868	52.95
9.0303	1.25676	0.992868	52.7482
9.13131	1.25676	0.992868	52.5463
9.23232	1.25676	0.992868	52.3442
9.33333	1.25676	0.992868	52.1421
9.43434	1.25676	0.992868	51.9399
9.53535	1.25676	0.992868	51.7376
9.63636	1.25676	0.992868	51.5351
9.73737	1.25676	0.992868	51.3324
9.83838	1.25676	0.992868	51.1295
9.93939	1.25676	0.992868	50.9263
10.0404	1.25676	0.992868	50.7227
10.1414	1.25676	0.992868	50.5187
10.2424	1.25676	0.992868	50.3141
10.3434	1.25676	0.992868	50.1087
10.4444	1.25676	0.992868	49.9023
10.5455	1.25676	0.992868	49.6947
10.6465	1.25676	0.992868	49.4856
10.7475	1.25676	0.992868	49.2746
10.8485	1.25676	0.992868	49.0612
10.9495	1.25676	0.992868	48.845
11.0505	1.25676	0.992868	48.6255
11.1515	1.25676	0.992868	48.402
11.2525	1.25676	0.992868	48.174
11.3535	1.25676	0.992868	47.9409
11.4545	1.25676	0.992868	47.7023
11.5556	1.25676	0.992868	47.4578
11.6566	1.25676	0.992868	47.2072
11.7576	1.25676	0.992868	46.9504
11.8586	1.25676	0.992868	46.6876
11.9596	1.25676	0.992868	46.419
12.0606	1.25676	0.992868	46.145
12.1616	1.25676	0.992868	45.866
12.2626	1.25676	0.992868	45.5826
12.3636	1.25676	0.992868	45.2951
12.4646	1.25676	0.992868	45.0041
12.5657	1.25676	0.992868	44.71
12.6667	1.25676	0.992868	44.4131
12.7677	1.25676	0.992868	44.1136
12.8687	1.25676	0.992868	43.8119
12.9697	1.25676	0.992868	43.5079
13.0707	1.25676	0.992868	43.2018
13.1717	1.25676	0.992868	42.8935
13.2727	1.25676	0.992868	42.5828
13.3737	1.25676	0.992868	42.2697
13.4747	1.25676	0.992868	41.9538
13.5758	1.25676	0.992868	41.6347
13.6768	1.25676	0.992868	41.3121
13.7778	1.25676	0.992868	40.9853
13.8788	1.25676	0.992868	40.6536
13.9798	1.25676	0.992868	40.3162
14.0808	1.25676	0.992868	39.972
14.1818	1.25676	0.992868	39.6197
14.2828	1.25676	0.992868	39.2578
14.3838	1.25676	0.992868	38.8844
14.4848	1.25676	0.992868	38.4972
14.5859	1.25676	0.992868	38.0934
14.6869	1.25676	0.992868	37.6695
14.7879	1.25676	0.992868	37.2213
14.8889	1.25676	0.992868	36.7436
14.9899	1.25676	0.992868	36.2297
15.0909	1.25676	0.992868	35.6716
15.1919	1.25676	0.992868	35.0592
15.2929	1.25676	0.992868	34.3799
15.3939	1.25676	0.992868	33.6178
15.4949	1.25676	0.992868	32.7529
15.596	1.25676	0.992868	31.7596
15.697	1.25676	0.992868	30.6047
15.798	1.25676	0.992868	29.245
15.899	1.25676	0.992868	27.6175
16	1.25676	0.992868	-inf
6	1.27103	1.01863	57.9923
6.10101	1.27103	1.01863	57.899
6.20202	1.27103	1.01863	57.7989
6.30303	1.27103	1.01863	57.6898
6.40404	1.27103	1.01863	57.5702
6.50505	1.27103	1.01863	57.4395
6.60606	1.27103	1.01863	57.298
6.70707	1.27103	1.01863	57.1466
6.80808	1.27103	1.01863	56.9864
6.90909	1.27103	1.01863	56.8186
7.0101	1.27103	1.01863	56.6444
7.11111	1.27103	1.01863	56.4648
7.21212	1.27103	1.01863	56.2809
7.31313	1.27103	1.01863	56.0934
7.41414	1.27103	1.01863	55.9029
7.51515	1.27103	1.01863	55.7102
7.61616	1.27103	1.01863	55.5155
7.71717	1.27103	1.01863	55.3194
7.81818	1.27103	1.01863	55.122
7.91919	1.27103	1.01863	54.9237
8.0202	1.27103	1.01863	54.7246
8.12121	1.27103	1.01863	54.5249
8.22222	1.27103	1.01863	54.3248
8.32323	1.27103	1.01863	54.1242
8.42424	1.27103	1.01863	53.9233
8.52525	1.27103	1.01863	53.7222
8.62626	1.27103	1.01863	53.5209
8.72727	1.27103	1.01863	53.3194
8.82828	1.27103	1.01863	53.1178
8.92929	1.27103	1.01863	52.916
9.0303	1.27103	1.01863	52.7142
9.13131	1.27103	1.01863	52.5122
9.23232	1.27103	1.01863	52.3102
9.33333	1.27103	1.01863	52.108
9.43434	1.27103	1.01863	51.9058
9.53535	1.27103	1.01863	51.7034
9.63636	1.27103	1.01863	51.5009
9.73737	1.27103	1.01863	51.2982
9.83838	1.27103	1.01863	51.0952
9.93939	1.27103	1.01863	50.892
10.0404	1.27103	1.01863	50.6883
10.1414	1.27103	1.01863	50.4842
10.2424	1.27103	1.01863	50.2795
10.3434	1.27103	1.01863	50.074
10.4444	1.27103	1.01863	49.8674
10.5455	1.27103	1.01863	49.6596
10.6465	1.27103	1.01863	49.4503
10.7475	1.27103	1.01863	49.239
10.8485	1.27103	1.01863	49.0253
10.9495	1.27103	1.01863	48.8088
11.0505	1.27103	1.01863	48.5889
11.1515	1.27103	1.01863	48.365
11.2525	1.27103	1.01863	48.1366
11.3535	1.27103	1.01863	47.903
11.4545	1.27103	1.01863	47.664
11.5556	1.27103	1.01863	47.419
11.6566	1.27103	1.01863	47.168
11.7576	1.27103	1.01863	46.9108
11.8586	1.27103	1.01863	46.6476
11.9596	1.27103	1.01863	46.3786
12.0606	1.27103	1.01863	46.1043
12.1616	1.27103	1.01863	45.825
12.2626	1.27103	1.01863	45.5413
12.3636	1.27103	1.01863	45.2536
12.4646	1.27103	1.01863	44.9624
12.5657	1.27103	1.01863	44.6681
12.6667	1.27103	1.01863	44.3711
12.7677	1.27103	1.01863	44.0716
12.8687	1.27103	1.01863	43.7697
12.9697	1.27103	1.01863	43.4657
13.0707	1.27103	1.01863	43.1595
13.1717	1.27103	1.01863	42.8512
13.2727	1.27103	1.01863	42.5405
13.3737	1.27103	1.01863	42.2273
13.4747	1.27103	1.01863	41.9114
13.5758	1.27103	1.01863	41.5923
13.6768	1.27103	1.01863	41.2697
13.7778	1.27103	1.01863	40.9429
13.8788	1.27103	1.01863	40.6112
13.9798	1.27103	1.01863	40.2737
14.0808	1.27103	1.01863	39.9295
14.1818	1.27103	1.01863	39.5772
14.2828	1.27103	1.01863	39.2153
14.3838	1.27103	1.01863	38.8419
14.4848	1.27103	1.01863	38.4547
14.5859	1.27103	1.01863	38.0509
14.6869	1.27103	1.01863	37.6271
14.7879	1.27103	1.01863	37.1789
14.8889	1.27103	1.01863	36.7011
14.9899	1.27103	1.01863	36.1872
15.0909	1.27103	1.01863	35.6291
15.1919	1.27103	1.01863	35.0168
15.2929	1.27103	1.01863	34.3374
15.3939	1.27103	1.01863	33.5754
15.4949	1.27103	1.01863	32.7104
15.596	1.27103	1.01863	31.7171
15.697	1.27103	1.01863	30.5622
15.798	1.27103	1.01863	29.2025
15.899	1.27103	1.01863	27.575
16	1.27103	1.01863	-inf
6	1.28529	1.04841	57.9703
6.10101	1.28529	1.04841	57.876
6.20202	1.28529	1.04841	57.7751
6.30303	1.28529	1.04841	57.6652
6.40404	1.28529	1.04841	57.545
6.50505	1.28529	1.04841	57.4138
6.60606	1.28529	1.04841	57.2719
6.70707	1.28529	1.04841	57.1202
6.80808	1.28529	1.04841	56.9598
6.90909	1.28529	1.04841	56.7918
7.0101	1.28529	1.04841	56.6174
7.11111	1.28529	1.04841	56.4378
7.21212	1.28529	1.04841	56.2537
7.31313	1.28529	1.04841	56.0661
7.41414	1.28529	1.04841	55.8756
7.51515	1.28529	1.04841	55.6828
7.61616	1.28529	1.04841	55.4881
7.71717	1.28529	1.04841	55.292
7.81818	1.28529	1.04841	55.0946
7.91919	1.28529	1.04841	54.8963
8.0202	1.28529	1.04841	54.6972
8.12121	1.28529	1.04841	54.4975
8.22222	1.28529	1.04841	54.2973
8.32323	1.28529	1.04841	54.0967
8.42424	1.28529	1.04841	53.8958
8.52525	1.28529	1.04841	53.6947
8.62626	1.28529	1.04841	53.4934
8.72727	1.28529	1.04841	53.2919
8.82828	1.28529	1.04841	53.0902
8.92929	1.28529	1.04841	52.8885
9.0303	1.28529	1.04841	52.6866
9.13131	1.28529	1.04841	52.4846
9.23232	1.28529	1.04841	52.2826
9.33333	1.28529	1.04841	52.0804
9.43434	1.28529	1.04841	51.8782
9.53535	1.28529	1.04841	51.6758
9.63636	1.28529	1.04841	51.4732
9.73737	1.28529	1.04841	51.2705
9.83838	1.28529	1.04841	51.0675
9.93939	1.28529	1.04841	50.8641
10.0404	1.28529	1.04841	50.6604
10.1414	1.28529	1.04841	50.4562
10.2424	1.28529	1.04841	50.2514
10.3434	1.28529	1.04841	50.0457
10.4444	1.28529	1.04841	49.839
10.5455	1.28529	1.04841	49.6311
10.6465	1.28529	1.04841	49.4215
10.7475	1.28529	1.04841	49.2099
10.8485	1.28529	1.04841	48.996
10.9495	1.28529	1.04841	48.7791
11.0505	1.28529	1.04841	48.5588
11.1515	1.28529	1.04841	48.3345
11.2525	1.28529	1.04841	48.1056
11.3535	1.28529	1.04841	47.8716
11.4545	1.28529	1.04841	47.6321
11.5556	1.28529	1.04841	47.3867
11.6566	1.28529	1.04841	47.1351
11.7576	1.28529	1.04841	46.8775
11.8586	1.28529	1.04841	46.6138
11.9596	1.28529	1.04841	46.3444
12.0606	1.28529	1.04841	46.0697
12.1616	1.28529	1.04841	45.7901
12.2626	1.28529	1.04841	45.5061
12.3636	1.28529	1.04841	45.2182
12.4646	1.28529	1.04841	44.9268
12.5657	1.28529	1.04841	44.6324
12.6667	1.28529	1.04841	44.3352
12.7677	1.28529	1.04841	44.0356
12.8687	1.28529	1.04841	43.7337
12.9697	1.28529	1.04841	43.4295
13.0707	1.28529	1.04841	43.1233
13.1717	1.28529	1.04841	42.8149
13.2727	1.28529	1.04841	42.5042
13.3737	1.28529	1.04841	42.191
13.4747	1.28529	1.04841	41.875
13.5758	1.28529	1.04841	41.5559
13.6768	1.28529	1.04841	41.2333
13.7778	1.28529	1.04841	40.9064
13.8788	1.28529	1.04841	40.5747
13.9798	1.28529	1.04841	40.2373
14.0808	1.28529	1.04841	39.8931
14.1818	1.28529	1.04841	39.5408
14.2828	1.28529	1.04841	39.1789
14.3838	1.28529	1.04841	38.8055
14.4848	1.28529	1.04841	38.4183
14.5859	1.28529	1.04841	38.0145
14.6869	1.28529	1.04841	37.5906
14.7879	1.28529	1.04841	37.1424
14.8889	1.28529	1.04841	36.6647
14.9899	1.28529	1.04841	36.1508
15.0909	1.28529	1.04841	35.5927
15.1919	1.28529	1.04841	34.9803
15.2929	1.28529	1.04841	34.301
15.3939	1.28529	1.04841	33.5389
15.4949	1.28529	1.04841	32.674
15.596	1.28529	1.04841	31.6806
15.697	1.28529	1.04841	30.5257
15.798	1.28529	1.04841	29.1661
15.899	1.28529	1.04841	27.5385
16	1.28529	1.04841	-inf
6	1.29956	1.07302	57.9411
6.10101	1.29956	1.07302	57.8458
6.20202	1.29956	1.07302	57.744
6.30303	1.29956	1.07302	57.6334
6.40404	1.29956	1.07302	57.5126
6.50505	1.29956	1.07302	57.3809
6.60606	1.29956	1.07302	57.2387
6.70707	1.29956	1.07302	57.0867
6.80808	1.29956	1.07302	56.926
6.90909	1.29956	1.07302	56.7578
7.0101	1.29956	1.07302	56.5833
7.11111	1.29956	1.07302	56.4035
7.21212	1.29956	1.07302	56.2194
7.31313	1.29956	1.07302	56.0317
7.41414	1.29956	1.07302	55.8412
7.51515	1.29956	1.07302	55.6483
7.61616	1.29956	1.07302	55.4536
7.71717	1.29956	1.07302	55.2574
7.81818	1.29956	1.07302	55.06
7.91919	1.29956	1.07302	54.8616
8.0202	1.29956	1.07302	54.6625
8.12121	1.29956	1.07302	54.4628
8.22222	1.29956	1.07302	54.2626
8.32323	1.29956	1.07302	54.062
8.42424	1.29956	1.07302	53.8612
8.52525	1.29956	1.07302	53.66
8.62626	1.29956	1.07302	53.4587
8.72727	1.29956	1.07302	53.2572
8.82828	1.29956	1.07302	53.0555
8.92929	1.29956	1.07302	52.8538
9.0303	1.29956	1.07302	52.6519
9.13131	1.29956	1.07302	52.4499
9.23232	1.29956	1.07302	52.2479
9.33333	1.29956	1.07302	52.0457
9.43434	1.29956	1.07302	51.8434
9.53535	1.29956	1.07302	51.641
9.63636	1.29956	1.07302	51.4384
9.73737	1.29956	1.07302	51.2356
9.83838	1.29956	1.07302	51.0325
9.93939	1.29956	1.07302	50.8292
10.0404	1.29956	1.07302	50.6254
10.1414	1.29956	1.07302	50.4211
10.2424	1.29956	1.07302	50.2161
10.3434	1.29956	1.07302	50.0104
10.4444	1.29956	1.07302	49.8035
10.5455	1.29956	1.07302	49.5954
10.6465	1.29956	1.07302	49.3856
10.7475	1.29956	1.07302	49.1738
10.8485	1.29956	1.07302	48.9596
10.9495	1.29956	1.07302	48.7424
11.0505	1.29956	1.07302	48.5218
11.1515	1.29956	1.07302	48.2971
11.2525	1.29956	1.07302	48.0678
11.3535	1.29956	1.07302	47.8334
11.4545	1.29956	1.07302	47.5934
11.5556	1.29956	1.07302	47.3475
11.6566	1.29956	1.07302	47.0956
11.7576	1.29956	1.07302	46.8375
11.8586	1.29956	1.07302	46.5735
11.9596	1.29956	1.07302	46.3037
12.0606	1.29956	1.07302	46.0287
12.1616	1.29956	1.07302	45.7488
12.2626	1.29956	1.07302	45.4646
12.3636	1.29956	1.07302	45.1765
12.4646	1.29956	1.07302	44.8849
12.5657	1.29956	1.07302	44.5903
12.6667	1.29956	1.07302	44.2931
12.7677	1.29956	1.07302	43.9933
12.8687	1.29956	1.07302	43.6913
12.9697	1.29956	1.07302	43.3871
13.0707	1.29956	1.07302	43.0808
13.1717	1.29956	1.07302	42.7724
13.2727	1.29956	1.07302	42.4616
13.3737	1.29956	1.07302	42.1484
13.4747	1.29956	1.07302	41.8324
13.5758	1.29956	1.07302	41.5133
13.6768	1.29956	1.07302	41.1907
13.7778	1.29956	1.07302	40.8638
13.8788	1.29956	1.07302	40.5321
13.9798	1.29956	1.07302	40.1947
14.0808	1.29956	1.07302	39.8504
14.1818	1.29956	1.07302	39.4981
14.2828	1.29956	1.07302	39.1362
14.3838	1.29956	1.07302	38.7628
14.4848	1.29956	1.07302	38.3756
14.5859	1.29956	1.07302	37.9718
14.6869	1.29956	1.07302	37.548
14.7879	1.29956	1.07302	37.0998
14.8889	1.29956	1.07302	36.622
14.9899	1.29956	1.07302	36.1081
15.0909	1.29956	1.07302	35.55
15.1919	1.29956	1.07302	34.9376
15.2929	1.29956	1.07302	34.2583
15.3939	1.29956	1.07302	33.4962
15.4949	1.29956	1.07302	32.6313
15.596	1.29956	1.07302	31.638
15.697	1.29956	1.07302	30.4831
15.798	1.29956	1.07302	29.1234
15.899	1.29956	1.07302	27.4959
16	1.29956	1.07302	-inf
6	1.31382	1.09725	57.9111
6.10101	1.31382	1.09725	57.815
6.20202	1.31382	1.09725	57.7124
6.30303	1.31382	1.09725	57.6012
6.40404	1.31382	1.09725	57.4798
6.50505	1.31382	1.09725	57.3477
6.60606	1.31382	1.09725	57.2051
6.70707	1.31382	1.09725	57.0529
6.80808	1.31382	1.09725	56.892
6.90909	1.31382	1.09725	56.7236
7.0101	1.31382	1.09725	56.549
7.11111	1.31382	1.09725	56.3691
7.21212	1.31382	1.09725	56.1849
7.31313	1.31382	1.09725	55.9972
7.41414	1.31382	1.09725	55.8066
7.51515	1.31382	1.09725	55.6137
7.61616	1.31382	1.09725	55.4189
7.71717	1.31382	1.09725	55.2227
7.81818	1.31382	1.09725	55.0253
7.91919	1.31382	1.09725	54.8269
8.0202	1.31382	1.09725	54.6278
8.12121	1.31382	1.09725	54.4281
8.22222	1.31382	1.09725	54.2279
8.32323	1.31382	1.09725	54.0273
8.42424	1.31382	1.09725	53.8264
8.52525	1.31382	1.09725	53.6252
8.62626	1.31382	1.09725	53.4239
8.72727	1.31382	1.09725	53.2224
8.82828	1.31382	1.09725	53.0207
8.92929	1.31382	1.09725	52.8189
9.0303	1.31382	1.09725	52.6171
9.13131	1.31382	1.09725	52.4151
9.23232	1.31382	1.09725	52.213
9.33333	1.31382	1.09725	52.0108
9.43434	1.31382	1.09725	51.8085
9.53535	1.31382	1.09725	51.6061
9.63636	1.31382	1.09725	51.4034
9.73737	1.31382	1.09725	51.2006
9.83838	1.31382	1.09725	50.9975
9.93939	1.31382	1.09725	50.7941
10.0404	1.31382	1.09725	50.5902
10.1414	1.31382	1.09725	50.3859
10.2424	1.31382	1.09725	50.1808
10.3434	1.31382	1.09725	49.9749
10.4444	1.31382	1.09725	49.7679
10.5455	1.31382	1.09725	49.5596
10.6465	1.31382	1.09725	49.3496
10.7475	1.31382	1.09725	49.1376
10.8485	1.31382	1.09725	48.9231
10.9495	1.31382	1.09725	48.7057
11.0505	1.31382	1.09725	48.4847
11.1515	1.31382	1.09725	48.2596
11.2525	1.31382	1.09725	48.03
11.3535	1.31382	1.09725	47.7951
11.4545	1.31382	1.09725	47.5547
11.5556	1.31382	1.09725	47.3084
11.6566	1.31382	1.09725	47.056
11.7576	1.31382	1.09725	46.7976
11.8586	1.31382	1.09725	46.5331
11.9596	1.31382	1.09725	46.2631
12.0606	1.31382	1.09725	45.9877
12.1616	1.31382	1.09725	45.7076
12.2626	1.31382	1.09725	45.4231
12.3636	1.31382	1.09725	45.1348
12.4646	1.31382	1.09725	44.8431
12.5657	1.31382	1.09725	44.5483
12.6667	1.31382	1.09725	44.2509
12.7677	1.31382	1.09725	43.9511
12.8687	1.31382	1.09725	43.649
12.9697	1.31382	1.09725	43.3448
13.0707	1.31382	1.09725	43.0384
13.1717	1.31382	1.09725	42.7299
13.2727	1.31382	1.09725	42.4192
13.3737	1.31382	1.09725	42.1059
13.4747	1.31382	1.09725	41.7899
13.5758	1.31382	1.09725	41.4708
13.6768	1.31382	1.09725	41.1481
13.7778	1.31382	1.09725	40.8212
13.8788	1.31382	1.09725	40.4895
13.9798	1.31382	1.09725	40.1521
14.0808	1.31382	1.09725	39.8078
14.1818	1.31382	1.09725	39.4555
14.2828	1.31382	1.09725	39.0936
14.3838	1.31382	1.09725	38.7202
14.4848	1.31382	1.09725	38.333
14.5859	1.31382	1.09725	37.9292
14.6869	1.31382	1.09725	37.5053
14.7879	1.31382	1.09725	37.0572
14.8889	1.31382	1.09725	36.5794
14.9899	1.31382	1.09725	36.0655
15.0909	1.31382	1.09725	35.5074
15.1919	1.31382	1.09725	34.895
15.2929	1.31382	1.09725	34.2157
15.3939	1.31382	1.09725	33.4536
15.4949	1.31382	1.09725	32.5887
15.596	1.31382	1.09725	31.5953
15.697	1.31382	1.09725	30.4405
15.798	1.31382	1.09725	29.0808
15.899	1.31382	1.09725	27.4533
16	1.31382	1.09725	-inf
6	1.32809	1.12578	57.8868
6.10101	1.32809	1.12578	57.7899
6.20202	1.32809	1.12578	57.6867
6.30303	1.32809	1.12578	57.575
6.40404	1.32809	1.12578	57.4532
6.50505	1.32809	1.12578	57.3207
6.60606	1.32809	1.12578	57.1778
6.70707	1.32809	1.12578	57.0253
6.80808	1.32809	1.12578	56.8643
6.90909	1.32809	1.12578	56.6958
7.0101	1.32809	1.12578	56.521
7.11111	1.32809	1.12578	56.3411
7.21212	1.32809	1.12578	56.1568
7.31313	1.32809	1.12578	55.969
7.41414	1.32809	1.12578	55.7784
7.51515	1.32809	1.12578	55.5854
7.61616	1.32809	1.12578	55.3907
7.71717	1.32809	1.12578	55.1944
7.81818	1.32809	1.12578	54.997
7.91919	1.32809	1.12578	54.7986
8.0202	1.32809	1.12578	54.5995
8.12121	1.32809	1.12578	54.3997
8.22222	1.32809	1.12578	54.1995
8.32323	1.32809	1.12578	53.9989
8.42424	1.32809	1.12578	53.798
8.52525	1.32809	1.12578	53.5969
8.62626	1.32809	1.12578	53.3955
8.72727	1.32809	1.12578	53.194
8.82828	1.32809	1.12578	52.9923
8.92929	1.32809	1.12578	52.7906
9.0303	1.32809	1.12578	52.5887
9.13131	1.32809	1.12578	52.3867
9.23232	1.32809	1.12578	52.1846
9.33333	1.32809	1.12578	51.9824
9.43434	1.32809	1.12578	51.7801
9.53535	1.32809	1.12578	51.5776
9.63636	1.32809	1.12578	51.3749
9.73737	1.32809	1.12578	51.1721
9.83838	1.32809	1.12578	50.9689
9.93939	1.32809	1.12578	50.7654
10.0404	1.32809	1.12578	50.5615
10.1414	1.32809	1.12578	50.3571
10.2424	1.32809	1.12578	50.1519
10.3434	1.32809	1.12578	49.9459
10.4444	1.32809	1.12578	49.7388
10.5455	1.32809	1.12578	49.5303
10.6465	1.32809	1.12578	49.3201
10.7475	1.32809	1.12578	49.1078
10.8485	1.32809	1.12578	48.8931
10.9495	1.32809	1.12578	48.6753
11.0505	1.32809	1.12578	48.454
11.1515	1.32809	1.12578	48.2285
11.2525	1.32809	1.12578	47.9985
11.3535	1.32809	1.12578	47.7632
11.4545	1.32809	1.12578	47.5223
11.5556	1.32809	1.12578	47.2755
11.6566	1.32809	1.12578	47.0227
11.7576	1.32809	1.12578	46.7638
11.8586	1.32809	1.12578	46.4989
11.9596	1.32809	1.12578	46.2285
12.0606	1.32809	1.12578	45.9528
12.1616	1.32809	1.12578	45.6723
12.2626	1.32809	1.12578	45.3876
12.3636	1.32809	1.12578	45.099
12.4646	1.32809	1.12578	44.8071
12.5657	1.32809	1.12578	44.5122
12.6667	1.32809	1.12578	44.2147
12.7677	1.32809	1.12578	43.9147
12.8687	1.32809	1.12578	43.6126
12.9697	1.32809	1.12578	43.3083
13.0707	1.32809	1.12578	43.0019
13.1717	1.32809	1.12578	42.6933
13.2727	1.32809	1.12578	42.3825
13.3737	1.32809	1.12578	42.0692
13.4747	1.32809	1.12578	41.7532
13.5758	1.32809	1.12578	41.4341
13.6768	1.32809	1.12578	41.1114
13.7778	1.32809	1.12578	40.7845
13.8788	1.32809	1.12578	40.4528
13.9798	1.32809	1.12578	40.1153
14.0808	1.32809	1.12578	39.7711
14.1818	1.32809	1.12578	39.4188
14.2828	1.32809	1.12578	39.0568
14.3838	1.32809	1.12578	38.6834
14.4848	1.32809	1.12578	38.2962
14.5859	1.32809	1.12578	37.8924
14.6869	1.32809	1.12578	37.4686
14.7879	1.32809	1.12578	37.0204
14.8889	1.32809	1.12578	36.5426
14.9899	1.32809	1.12578	36.0287
15.0909	1.32809	1.12578	35.4706
15.1919	1.32809	1.12578	34.8582
15.2929	1.32809	1.12578	34.1789
15.3939	1.32809	1.12578	33.4168
15.4949	1.32809	1.12578	32.5519
15.596	1.32809	1.12578	31.5586
15.697	1.32809	1.12578	30.4037
15.798	1.32809	1.12578	29.044
15.899	1.32809	1.12578	27.4165
16	1.32809	1.12578	-inf
6	1.34235	1.14953	57.8559
6.10101	1.34235	1.14953	57.7583
6.20202	1.34235	1.14953	57.6545
6.30303	1.34235	1.14953	57.5422
6.40404	1.34235	1.14953	57.4199
6.50505	1.34235	1.14953	57.2871
6.60606	1.34235	1.14953	57.144
6.70707	1.34235	1.14953	56.9912
6.80808	1.34235	1.14953	56.83
6.90909	1.34235	1.14953	56.6614
7.0101	1.34235	1.14953	56.4865
7.11111	1.34235	1.14953	56.3064
7.21212	1.34235	1.14953	56.1221
7.31313	1.34235	1.14953	55.9343
7.41414	1.34235	1.14953	55.7436
7.51515	1.34235	1.14953	55.5506
7.61616	1.34235	1.14953	55.3558
7.71717	1.34235	1.14953	55.1596
7.81818	1.34235	1.14953	54.9621
7.91919	1.34235	1.14953	54.7637
8.0202	1.34235	1.14953	54.5646
8.12121	1.34235	1.14953	54.3648
8.22222	1.34235	1.14953	54.1646
8.32323	1.34235	1.14953	53.964
8.42424	1.34235	1.14953	53.7631
8.52525	1.34235	1.14953	53.5619
8.62626	1.34235	1.14953	53.3606
8.72727	1.34235	1.14953	53.1591
8.82828	1.34235	1.14953	52.9574
8.92929	1.34235	1.14953	52.7556
9.0303	1.34235	1.14953	52.5537
9.13131	1.34235	1.14953	52.3517
9.23232	1.34235	1.14953	52.1496
9.33333	1.34235	1.14953	51.9474
9.43434	1.34235	1.14953	51.745
9.53535	1.34235	1.14953	51.5425
9.63636	1.34235	1.14953	51.3399
9.73737	1.34235	1.14953	51.137
9.83838	1.34235	1.14953	50.9338
9.93939	1.34235	1.14953	50.7302
10.0404	1.34235	1.14953	50.5263
10.1414	1.34235	1.14953	50.3217
10.2424	1.34235	1.14953	50.1165
10.3434	1.34235	1.14953	49.9103
10.4444	1.34235	1.14953	49.7031
10.5455	1.34235	1.14953	49.4944
10.6465	1.34235	1.14953	49.2841
10.7475	1.34235	1.14953	49.0716
10.8485	1.34235	1.14953	48.8566
10.9495	1.34235	1.14953	48.6385
11.0505	1.34235	1.14953	48.4169
11.1515	1.34235	1.14953	48.1911
11.2525	1.34235	1.14953	47.9606
11.3535	1.34235	1.14953	47.7249
11.4545	1.34235	1.14953	47.4836
11.5556	1.34235	1.14953	47.2365
11.6566	1.34235	1.14953	46.9832
11.7576	1.34235	1.14953	46.7239
11.8586	1.34235	1.14953	46.4587
11.9596	1.34235	1.14953	46.1879
12.0606	1.34235	1.14953	45.9119
12.1616	1.34235	1.14953	45.6311
12.2626	1.34235	1.14953	45.3462
12.3636	1.34235	1.14953	45.0574
12.4646	1.34235	1.14953	44.7653
12.5657	1.34235	1.14953	44.4703
12.6667	1.34235	1.14953	44.1727
12.7677	1.34235	1.14953	43.8726
12.8687	1.34235	1.14953	43.5704
12.9697	1.34235	1.14953	43.266
13.0707	1.34235	1.14953	42.9595
13.1717	1.34235	1.14953	42.651
13.2727	1.34235	1.14953	42.3401
13.3737	1.34235	1.14953	42.0268
13.4747	1.34235	1.14953	41.7108
13.5758	1.34235	1.14953	41.3916
13.6768	1.34235	1.14953	41.0689
13.7778	1.34235	1.14953	40.742
13.8788	1.34235	1.14953	40.4103
13.9798	1.34235	1.14953	40.0728
14.0808	1.34235	1.14953	39.7286
14.1818	1.34235	1.14953	39.3763
14.2828	1.34235	1.14953	39.0143
14.3838	1.34235	1.14953	38.6409
14.4848	1.34235	1.14953	38.2537
14.5859	1.34235	1.14953	37.8499
14.6869	1.34235	1.14953	37.4261
14.7879	1.34235	1.14953	36.9779
14.8889	1.34235	1.14953	36.5001
14.9899	1.34235	1.14953	35.9862
15.0909	1.34235	1.14953	35.4281
15.1919	1.34235	1.14953	34.8157
15.2929	1.34235	1.14953	34.1364
15.3939	1.34235	1.14953	33.3743
15.4949	1.34235	1.14953	32.5094
15.596	1.34235	1.14953	31.516
15.697	1.34235	1.14953	30.3612
15.798	1.34235	1.14953	29.0015
15.899	1.34235	1.14953	27.374
16	1.34235	1.14953	-inf
6	1.35662	1.17772	57.8307
6.10101	1.35662	1.17772	57.7325
6.20202	1.35662	1.17772	57.6281
6.30303	1.35662	1.17772	57.5154
6.40404	1.35662	1.17772	57.3928
6.50505	1.35662	1.17772	57.2597
6.60606	1.35662	1.17772	57.1163
6.70707	1.35662	1.17772	56.9634
6.80808	1.35662	1.17772	56.802
6.90909	1.35662	1.17772	56.6332
7.0101	1.35662	1.17772	56.4583
7.11111	1.35662	1.17772	56.2782
7.21212	1.35662	1.17772	56.0938
7.31313	1.35662	1.17772	55.9059
7.41414	1.35662	1.17772	55.7152
7.51515	1.35662	1.17772	55.5222
7.61616	1.35662	1.17772	55.3274
7.71717	1.35662	1.17772	55.1311
7.81818	1.35662	1.17772	54.9336
7.91919	1.35662	1.17772	54.7352
8.0202	1.35662	1.17772	54.536
8.12121	1.35662	1.17772	54.3363
8.22222	1.35662	1.17772	54.1361
8.32323	1.35662	1.17772	53.9355
8.42424	1.35662	1.17772	53.7345
8.52525	1.35662	1.17772	53.5334
8.62626	1.35662	1.17772	53.332
8.72727	1.35662	1.17772	53.1305
8.82828	1.35662	1.17772	52.9288
8.92929	1.35662	1.17772	52.727
9.0303	1.35662	1.17772	52.5251
9.13131	1.35662	1.17772	52.3231
9.23232	1.35662	1.17772	52.121
9.33333	1.35662	1.17772	51.9188
9.43434	1.35662	1.17772	51.7164
9.53535	1.35662	1.17772	51.5139
9.63636	1.35662	1.17772	51.3112
9.73737	1.35662	1.17772	51.1082
9.83838	1.35662	1.17772	50.905
9.93939	1.35662	1.17772	50.7014
10.0404	1.35662	1.17772	50.4974
10.1414	1.35662	1.17772	50.2927
10.2424	1.35662	1.17772	50.0874
10.3434	1.35662	1.17772	49.8811
10.4444	1.35662	1.17772	49.6737
10.5455	1.35662	1.17772	49.4649
10.6465	1.35662	1.17772	49.2544
10.7475	1.35662	1.17772	49.0417
10.8485	1.35662	1.17772	48.8264
10.9495	1.35662	1.17772	48.608
11.0505	1.35662	1.17772	48.386
11.1515	1.35662	1.17772	48.1599
11.2525	1.35662	1.17772	47.929
11.3535	1.35662	1.17772	47.6929
11.4545	1.35662	1.17772	47.4511
11.5556	1.35662	1.17772	47.2035
11.6566	1.35662	1.17772	46.9498
11.7576	1.35662	1.17772	46.69
11.8586	1.35662	1.17772	46.4244
11.9596	1.35662	1.17772	46.1532
12.0606	1.35662	1.17772	45.8769
12.1616	1.35662	1.17772	45.5958
12.2626	1.35662	1.17772	45.3106
12.3636	1.35662	1.17772	45.0216
12.4646	1.35662	1.17772	44.7293
12.5657	1.35662	1.17772	44.4342
12.6667	1.35662	1.17772	44.1364
12.7677	1.35662	1.17772	43.8362
12.8687	1.35662	1.17772	43.5339
12.9697	1.35662	1.17772	43.2295
13.0707	1.35662	1.17772	42.923
13.1717	1.35662	1.17772	42.6143
13.2727	1.35662	1.17772	42.3034
13.3737	1.35662	1.17772	41.9901
13.4747	1.35662	1.17772	41.674
13.5758	1.35662	1.17772	41.3549
13.6768	1.35662	1.17772	41.0321
13.7778	1.35662	1.17772	40.7053
13.8788	1.35662	1.17772	40.3735
13.9798	1.35662	1.17772	40.036
14.0808	1.35662	1.17772	39.6918
14.1818	1.35662	1.17772	39.3395
14.2828	1.35662	1.17772	38.9775
14.3838	1.35662	1.17772	38.6041
14.4848	1.35662	1.17772	38.2169
14.5859	1.35662	1.17772	37.8131
14.6869	1.35662	1.17772	37.3892
14.7879	1.35662	1.17772	36.941
14.8889	1.35662	1.17772	36.4633
14.9899	1.35662	1.17772	35.9494
15.0909	1.35662	1.17772	35.3913
15.1919	1.35662	1.17772	34.7789
15.2929	1.35662	1.17772	34.0996
15.3939	1.35662	1.17772	33.3375
15.4949	1.35662	1.17772	32.4726
15.596	1.35662	1.17772	31.4792
15.697	1.35662	1.17772	30.3244
15.798	1.35662	1.17772	28.9647
15.899	1.35662	1.17772	27.3371
16	1.35662	1.17772	-inf
6	1.37088	1.20585	57.8051
6.10101	1.37088	1.20585	57.7064
6.20202	1.37088	1.20585	57.6015
6.30303	1.37088	1.20585	57.4884
6.40404	1.37088	1.20585	57.3654
6.50505	1.37088	1.20585	57.232
6.60606	1.37088	1.20585	57.0885
6.70707	1.37088	1.20585	56.9354
6.80808	1.37088	1.20585	56.7738
6.90909	1.37088	1.20585	56.605
7.0101	1.37088	1.20585	56.43
7.11111	1.37088	1.20585	56.2498
7.21212	1.37088	1.20585	56.0653
7.31313	1.37088	1.20585	55.8774
7.41414	1.37088	1.20585	55.6867
7.51515	1.37088	1.20585	55.4936
7.61616	1.37088	1.20585	55.2988
7.71717	1.37088	1.20585	55.1025
7.81818	1.37088	1.20585	54.905
7.91919	1.37088	1.20585	54.7066
8.0202	1.37088	1.20585	54.5074
8.12121	1.37088	1.20585	54.3077
8.22222	1.37088	1.20585	54.1075
8.32323	1.37088	1.20585	53.9068
8.42424	1.37088	1.20585	53.7059
8.52525	1.37088	1.20585	53.5048
8.62626	1.37088	1.20585	53.3034
8.72727	1.37088	1.20585	53.1018
8.82828	1.37088	1.20585	52.9002
8.92929	1.37088	1.20585	52.6984
9.0303	1.37088	1.20585	52.4965
9.13131	1.37088	1.20585	52.2944
9.23232	1.37088	1.20585	52.0923
9.33333	1.37088	1.20585	51.8901
9.43434	1.37088	1.20585	51.6877
9.53535	1.37088	1.20585	51.4851
9.63636	1.37088	1.20585	51.2824
9.73737	1.37088	1.20585	51.0794
9.83838	1.37088	1.20585	50.8761
9.93939	1.37088	1.20585	50.6725
10.0404	1.37088	1.20585	50.4684
10.1414	1.37088	1.20585	50.2637
10.2424	1.37088	1.20585	50.0582
10.3434	1.37088	1.20585	49.8519
10.4444	1.37088	1.20585	49.6443
10.5455	1.37088	1.20585	49.4354
10.6465	1.37088	1.20585	49.2246
10.7475	1.37088	1.20585	49.0117
10.8485	1.37088	1.20585	48.7961
10.9495	1.37088	1.20585	48.5775
11.0505	1.37088	1.20585	48.3551
11.1515	1.37088	1.20585	48.1286
11.2525	1.37088	1.20585	47.8973
11.3535	1.37088	1.20585	47.6608
11.4545	1.37088	1.20585	47.4186
11.5556	1.37088	1.20585	47.1705
11.6566	1.37088	1.20585	46.9163
11.7576	1.37088	1.20585	46.6561
11.8586	1.37088	1.20585	46.3901
11.9596	1.37088	1.20585	46.1185
12.0606	1.37088	1.20585	45.8418
12.1616	1.37088	1.20585	45.5605
12.2626	1.37088	1.20585	45.275
12.3636	1.37088	1.20585	44.9858
12.4646	1.37088	1.20585	44.6933
12.5657	1.37088	1.20585	44.398
12.6667	1.37088	1.20585	44.1001
12.7677	1.37088	1.20585	43.7998
12.8687	1.37088	1.20585	43.4974
12.9697	1.37088	1.20585	43.1929
13.0707	1.37088	1.20585	42.8863
13.1717	1.37088	1.20585	42.5777
13.2727	1.37088	1.20585	42.2667
13.3737	1.37088	1.20585	41.9534
13.4747	1.37088	1.20585	41.6373
13.5758	1.37088	1.20585	41.3181
13.6768	1.37088	1.20585	40.9954
13.7778	1.37088	1.20585	40.6685
13.8788	1.37088	1.20585	40.3367
13.9798	1.37088	1.20585	39.9992
14.0808	1.37088	1.20585	39.655
14.1818	1.37088	1.20585	39.3026
14.2828	1.37088	1.20585	38.9407
14.3838	1.37088	1.20585	38.5673
14.4848	1.37088	1.20585	38.1801
14.5859	1.37088	1.20585	37.7763
14.6869	1.37088	1.20585	37.3524
14.7879	1.37088	1.20585	36.9042
14.8889	1.37088	1.20585	36.4264
14.9899	1.37088	1.20585	35.9126
15.0909	1.37088	1.20585	35.3545
15.1919	1.37088	1.20585	34.7421
15.2929	1.37088	1.20585	34.0628
15.3939	1.37088	1.20585	33.3007
15.4949	1.37088	1.20585	32.4358
15.596	1.37088	1.20585	31.4424
15.697	1.37088	1.20585	30.2875
15.798	1.37088	1.20585	28.9278
15.899	1.37088	1.20585	27.3003
16	1.37088	1.20585	-inf
6	1.38515	1.22949	57.7733
6.10101	1.38515	1.22949	57.6741
6.20202	1.38515	1.22949	57.5688
6.30303	1.38515	1.22949	57.4552
6.40404	1.38515	1.22949	57.3319
6.50505	1.38515	1.22949	57.1983
6.60606	1.38515	1.22949	57.0545
6.70707	1.38515	1.22949	56.9012
6.80808	1.38515	1.22949	56.7395
6.90909	1.38515	1.22949	56.5706
7.0101	1.38515	1.22949	56.3955
7.11111	1.38515	1.22949	56.2152
7.21212	1.38515	1.22949	56.0307
7.31313	1.38515	1.22949	55.8428
7.41414	1.38515	1.22949	55.652
7.51515	1.38515	1.22949	55.459
7.61616	1.38515	1.22949	55.2641
7.71717	1.38515	1.22949	55.0678
7.81818	1.38515	1.22949	54.8703
7.91919	1.38515	1.22949	54.6719
8.0202	1.38515	1.22949	54.4727
8.12121	1.38515	1.22949	54.2729
8.22222	1.38515	1.22949	54.0727
8.32323	1.38515	1.22949	53.8721
8.42424	1.38515	1.22949	53.6711
8.52525	1.38515	1.22949	53.47
8.62626	1.38515	1.22949	53.2686
8.72727	1.38515	1.22949	53.0671
8.82828	1.38515	1.22949	52.8654
8.92929	1.38515	1.22949	52.6636
9.0303	1.38515	1.22949	52.4616
9.13131	1.38515	1.22949	52.2596
9.23232	1.38515	1.22949	52.0575
9.33333	1.38515	1.22949	51.8552
9.43434	1.38515	1.22949	51.6528
9.53535	1.38515	1.22949	51.4502
9.63636	1.38515	1.22949	51.2475
9.73737	1.38515	1.22949	51.0444
9.83838	1.38515	1.22949	50.8411
9.93939	1.38515	1.22949	50.6374
10.0404	1.38515	1.22949	50.4333
10.1414	1.38515	1.22949	50.2285
10.2424	1.38515	1.22949	50.023
10.3434	1.38515	1.22949	49.8165
10.4444	1.38515	1.22949	49.6088
10.5455	1.38515	1.22949	49.3997
10.6465	1.38515	1.22949	49.1887
10.7475	1.38515	1.22949	48.9756
10.8485	1.38515	1.22949	48.7598
10.9495	1.38515	1.22949	48.5409
11.0505	1.38515	1.22949	48.3182
11.1515	1.38515	1.22949	48.0913
11.2525	1.38515	1.22949	47.8597
11.3535	1.38515	1.22949	47.6227
11.4545	1.38515	1.22949	47.3801
11.5556	1.38515	1.22949	47.1316
11.6566	1.38515	1.22949	46.877
11.7576	1.38515	1.22949	46.6164
11.8586	1.38515	1.22949	46.35
11.9596	1.38515	1.22949	46.0781
12.0606	1.38515	1.22949	45.8012
12.1616	1.38515	1.22949	45.5196
12.2626	1.38515	1.22949	45.2338
12.3636	1.38515	1.22949	44.9444
12.4646	1.38515	1.22949	44.6518
12.5657	1.38515	1.22949	44.3563
12.6667	1.38515	1.22949	44.0583
12.7677	1.38515	1.22949	43.758
12.8687	1.38515	1.22949	43.4555
12.9697	1.38515	1.22949	43.1509
13.0707	1.38515	1.22949	42.8443
13.1717	1.38515	1.22949	42.5356
13.2727	1.38515	1.22949	42.2246
13.3737	1.38515	1.22949	41.9112
13.4747	1.38515	1.22949	41.5951
13.5758	1.38515	1.22949	41.2759
13.6768	1.38515	1.22949	40.9532
13.7778	1.38515	1.22949	40.6263
13.8788	1.38515	1.22949	40.2945
13.9798	1.38515	1.22949	39.957
14.0808	1.38515	1.22949	39.6127
14.1818	1.38515	1.22949	39.2604
14.2828	1.38515	1.22949	38.8985
14.3838	1.38515	1.22949	38.5251
14.4848	1.38515	1.22949	38.1379
14.5859	1.38515	1.22949	37.7341
14.6869	1.38515	1.22949	37.3102
14.7879	1.38515	1.22949	36.862
14.8889	1.38515	1.22949	36.3842
14.9899	1.38515	1.22949	35.8703
15.0909	1.38515	1.22949	35.3122
15.1919	1.38515	1.22949	34.6998
15.2929	1.38515	1.22949	34.0205
15.3939	1.38515	1.22949	33.2584
15.4949	1.38515	1.22949	32.3935
15.596	1.38515	1.22949	31.4002
15.697	1.38515	1.22949	30.2453
15.798	1.38515	1.22949	28.8856
15.899	1.38515	1.22949	27.2581
16	1.38515	1.22949	-inf
6	1.39941	1.25773	57.7473
6.10101	1.39941	1.25773	57.6476
6.20202	1.39941	1.25773	57.5419
6.30303	1.39941	1.25773	57.428
6.40404	1.39941	1.25773	57.3044
6.50505	1.39941	1.25773	57.1706
6.60606	1.39941	1.25773	57.0266
6.70707	1.39941	1.25773	56.8732
6.80808	1.39941	1.25773	56.7114
6.90909	1.39941	1.25773	56.5424
7.0101	1.39941	1.25773	56.3672
7.11111	1.39941	1.25773	56.1869
7.21212	1.39941	1.25773	56.0023
7.31313	1.39941	1.25773	55.8143
7.41414	1.39941	1.25773	55.6235
7.51515	1.39941	1.25773	55.4305
7.61616	1.39941	1.25773	55.2356
7.71717	1.39941	1.25773	55.0392
7.81818	1.39941	1.25773	54.8417
7.91919	1.39941	1.25773	54.6433
8.0202	1.39941	1.25773	54.4441
8.12121	1.39941	1.25773	54.2444
8.22222	1.39941	1.25773	54.0441
8.32323	1.39941	1.25773	53.8435
8.42424	1.39941	1.25773	53.6426
8.52525	1.39941	1.25773	53.4414
8.62626	1.39941	1.25773	53.24
8.72727	1.39941	1.25773	53.0385
8.82828	1.39941	1.25773	52.8368
8.92929	1.39941	1.25773	52.635
9.0303	1.39941	1.25773	52.433
9.13131	1.39941	1.25773	52.231
9.23232	1.39941	1.25773	52.0288
9.33333	1.39941	1.25773	51.8266
9.43434	1.39941	1.25773	51.6241
9.53535	1.39941	1.25773	51.4215
9.63636	1.39941	1.25773	51.2187
9.73737	1.39941	1.25773	51.0157
9.83838	1.39941	1.25773	50.8123
9.93939	1.39941	1.25773	50.6086
10.0404	1.39941	1.25773	50.4044
10.1414	1.39941	1.25773	50.1995
10.2424	1.39941	1.25773	49.9939
10.3434	1.39941	1.25773	49.7873
10.4444	1.39941	1.25773	49.5795
10.5455	1.39941	1.25773	49.3702
10.6465	1.39941	1.25773	49.1591
10.7475	1.39941	1.25773	48.9457
10.8485	1.39941	1.25773	48.7296
10.9495	1.39941	1.25773	48.5104
11.0505	1.39941	1.25773	48.2874
11.1515	1.39941	1.25773	48.0602
11.2525	1.39941	1.25773	47.8281
11.3535	1.39941	1.25773	47.5907
11.4545	1.39941	1.25773	47.3477
11.5556	1.39941	1.25773	47.0987
11.6566	1.39941	1.25773	46.8436
11.7576	1.39941	1.25773	46.5826
11.8586	1.39941	1.25773	46.3158
11.9596	1.39941	1.25773	46.0435
12.0606	1.39941	1.25773	45.7662
12.1616	1.39941	1.25773	45.4843
12.2626	1.39941	1.25773	45.1983
12.3636	1.39941	1.25773	44.9087
12.4646	1.39941	1.25773	44.6159
12.5657	1.39941	1.25773	44.3203
12.6667	1.39941	1.25773	44.0221
12.7677	1.39941	1.25773	43.7217
12.8687	1.39941	1.25773	43.4191
12.9697	1.39941	1.25773	43.1144
13.0707	1.39941	1.25773	42.8078
13.1717	1.39941	1.25773	42.499
13.2727	1.39941	1.25773	42.188
13.3737	1.39941	1.25773	41.8746
13.4747	1.39941	1.25773	41.5585
13.5758	1.39941	1.25773	41.2393
13.6768	1.39941	1.25773	40.9165
13.7778	1.39941	1.25773	40.5896
13.8788	1.39941	1.25773	40.2578
13.9798	1.39941	1.25773	39.9203
14.0808	1.39941	1.25773	39.576
14.1818	1.39941	1.25773	39.2237
14.2828	1.39941	1.25773	38.8618
14.3838	1.39941	1.25773	38.4883
14.4848	1.39941	1.25773	38.1011
14.5859	1.39941	1.25773	37.6973
14.6869	1.39941	1.25773	37.2735
14.7879	1.39941	1.25773	36.8253
14.8889	1.39941	1.25773	36.3475
14.9899	1.39941	1.25773	35.8336
15.0909	1.39941	1.25773	35.2755
15.1919	1.39941	1.25773	34.6631
15.2929	1.39941	1.25773	33.9838
15.3939	1.39941	1.25773	33.2217
15.4949	1.39941	1.25773	32.3568
15.596	1.39941	1.25773	31.3634
15.697	1.39941	1.25773	30.2086
15.798	1.39941	1.25773	28.8489
15.899	1.39941	1.25773	27.2213
16	1.39941	1.25773	-inf
6	1.41368	1.2861	57.7211
6.10101	1.41368	1.2861	57.621
6.20202	1.41368	1.2861	57.515
6.30303	1.41368	1.2861	57.4007
6.40404	1.41368	1.2861	57.2769
6.50505	1.41368	1.2861	57.1428
6.60606	1.41368	1.2861	56.9986
6.70707	1.41368	1.2861	56.8451
6.80808	1.41368	1.2861	56.6832
6.90909	1.41368	1.2861	56.5141
7.0101	1.41368	1.2861	56.3389
7.11111	1.41368	1.2861	56.1585
7.21212	1.41368	1.2861	55.9739
7.31313	1.41368	1.2861	55.7859
7.41414	1.41368	1.2861	55.5951
7.51515	1.41368	1.2861	55.402
7.61616	1.41368	1.2861	55.2071
7.71717	1.41368	1.2861	55.0107
7.81818	1.41368	1.2861	54.8132
7.91919	1.41368	1.2861	54.6148
8.0202	1.41368	1.2861	54.4156
8.12121	1.41368	1.2861	54.2158
8.22222	1.41368	1.2861	54.0156
8.32323	1.41368	1.2861	53.8149
8.42424	1.41368	1.2861	53.614
8.52525	1.41368	1.2861	53.4128
8.62626	1.41368	1.2861	53.2115
8.72727	1.41368	1.2861	53.0099
8.82828	1.41368	1.2861	52.8082
8.92929	1.41368	1.2861	52.6064
9.0303	1.41368	1.2861	52.4044
9.13131	1.41368	1.2861	52.2024
9.23232	1.41368	1.2861	52.0002
9.33333	1.41368	1.2861	51.7979
9.43434	1.41368	1.2861	51.5955
9.53535	1.41368	1.2861	51.3929
9.63636	1.41368	1.2861	51.1901
9.73737	1.41368	1.2861	50.987
9.83838	1.41368	1.2861	50.7836
9.93939	1.41368	1.2861	50.5798
10.0404	1.41368	1.2861	50.3755
10.1414	1.41368	1.2861	50.1706
10.2424	1.41368	1.2861	49.9648
10.3434	1.41368	1.2861	49.7581
10.4444	1.41368	1.2861	49.5502
10.5455	1.41368	1.2861	49.3407
10.6465	1.41368	1.2861	49.1294
10.7475	1.41368	1.2861	48.9158
10.8485	1.41368	1.2861	48.6995
10.9495	1.41368	1.2861	48.48
11.0505	1.41368	1.2861	48.2566
11.1515	1.41368	1.2861	48.029
11.2525	1.41368	1.2861	47.7965
11.3535	1.41368	1.2861	47.5587
11.4545	1.41368	1.2861	47.3152
11.5556	1.41368	1.2861	47.0658
11.6566	1.41368	1.2861	46.8103
11.7576	1.41368	1.2861	46.5488
11.8586	1.41368	1.2861	46.2816
11.9596	1.41368	1.2861	46.0089
12.0606	1.41368	1.2861	45.7313
12.1616	1.41368	1.2861	45.4491
12.2626	1.41368	1.2861	45.1628
12.3636	1.41368	1.2861	44.873
12.4646	1.41368	1.2861	44.58
12.5657	1.41368	1.2861	44.2842
12.6667	1.41368	1.2861	43.9859
12.7677	1.41368	1.2861	43.6854
12.8687	1.41368	1.2861	43.3827
12.9697	1.41368	1.2861	43.078
13.0707	1.41368	1.2861	42.7713
13.1717	1.41368	1.2861	42.4625
13.2727	1.41368	1.2861	42.1515
13.3737	1.41368	1.2861	41.838
13.4747	1.41368	1.2861	41.5219
13.5758	1.41368	1.2861	41.2027
13.6768	1.41368	1.2861	40.8799
13.7778	1.41368	1.2861	40.5529
13.8788	1.41368	1.2861	40.2211
13.9798	1.41368	1.2861	39.8836
14.0808	1.41368	1.2861	39.5394
14.1818	1.41368	1.2861	39.187
14.2828	1.41368	1.2861	38.8251
14.3838	1.41368	1.2861	38.4517
14.4848	1.41368	1.2861	38.0645
14.5859	1.41368	1.2861	37.6606
14.6869	1.41368	1.2861	37.2368
14.7879	1.41368	1.2861	36.7886
14.8889	1.41368	1.2861	36.3108
14.9899	1.41368	1.2861	35.7969
15.0909	1.41368	1.2861	35.2388
15.1919	1.41368	1.2861	34.6264
15.2929	1.41368	1.2861	33.9471
15.3939	1.41368	1.2861	33.185
15.4949	1.41368	1.2861	32.3201
15.596	1.41368	1.2861	31.3267
15.697	1.41368	1.2861	30.1719
15.798	1.41368	1.2861	28.8122
15.899	1.41368	1.2861	27.1847
16	1.41368	1.2861	-inf
6	1.42794	1.31022	57.6891
6.10101	1.42794	1.31022	57.5886
6.20202	1.42794	1.31022	57.4822
6.30303	1.42794	1.31022	57.3676
6.40404	1.42794	1.31022	57.2435
6.50505	1.42794	1.31022	57.1092
6.60606	1.42794	1.31022	56.9649
6.70707	1.42794	1.31022	56.8112
6.80808	1.42794	1.31022	56.6492
6.90909	1.42794	1.31022	56.48
7.0101	1.42794	1.31022	56.3047
7.11111	1.42794	1.31022	56.1243
7.21212	1.42794	1.31022	55.9397
7.31313	1.42794	1.31022	55.7516
7.41414	1.42794	1.31022	55.5608
7.51515	1.42794	1.31022	55.3677
7.61616	1.42794	1.31022	55.1728
7.71717	1.42794	1.31022	54.9764
7.81818	1.42794	1.31022	54.7789
7.91919	1.42794	1.31022	54.5804
8.0202	1.42794	1.31022	54.3812
8.12121	1.42794	1.31022	54.1815
8.22222	1.42794	1.31022	53.9812
8.32323	1.42794	1.31022	53.7806
8.42424	1.42794	1.31022	53.5796
8.52525	1.42794	1.31022	53.3785
8.62626	1.42794	1.31022	53.1771
8.72727	1.42794	1.31022	52.9755
8.82828	1.42794	1.31022	52.7738
8.92929	1.42794	1.31022	52.572
9.0303	1.42794	1.31022	52.37
9.13131	1.42794	1.31022	52.168
9.23232	1.42794	1.31022	51.9658
9.33333	1.42794	1.31022	51.7635
9.43434	1.42794	1.31022	51.561
9.53535	1.42794	1.31022	51.3584
9.63636	1.42794	1.31022	51.1555
9.73737	1.42794	1.31022	50.9524
9.83838	1.42794	1.31022	50.749
9.93939	1.42794	1.31022	50.5452
10.0404	1.42794	1.31022	50.3408
10.1414	1.42794	1.31022	50.1358
10.2424	1.42794	1.31022	49.93
10.3434	1.42794	1.31022	49.7232
10.4444	1.42794	1.31022	49.5151
10.5455	1.42794	1.31022	49.3055
10.6465	1.42794	1.31022	49.094
10.7475	1.42794	1.31022	48.8802
10.8485	1.42794	1.31022	48.6636
10.9495	1.42794	1.31022	48.4438
11.0505	1.42794	1.31022	48.2202
11.1515	1.42794	1.31022	47.9922
11.2525	1.42794	1.31022	47.7593
11.3535	1.42794	1.31022	47.5211
11.4545	1.42794	1.31022	47.2772
11.5556	1.42794	1.31022	47.0273
11.6566	1.42794	1.31022	46.7714
11.7576	1.42794	1.31022	46.5096
11.8586	1.42794	1.31022	46.242
11.9596	1.42794	1.31022	45.969
12.0606	1.42794	1.31022	45.691
12.1616	1.42794	1.31022	45.4086
12.2626	1.42794	1.31022	45.1221
12.3636	1.42794	1.31022	44.8321
12.4646	1.42794	1.31022	44.5389
12.5657	1.42794	1.31022	44.243
12.6667	1.42794	1.31022	43.9446
12.7677	1.42794	1.31022	43.644
12.8687	1.42794	1.31022	43.3412
12.9697	1.42794	1.31022	43.0365
13.0707	1.42794	1.31022	42.7297
13.1717	1.42794	1.31022	42.4208
13.2727	1.42794	1.31022	42.1098
13.3737	1.42794	1.31022	41.7963
13.4747	1.42794	1.31022	41.4801
13.5758	1.42794	1.31022	41.1609
13.6768	1.42794	1.31022	40.8381
13.7778	1.42794	1.31022	40.5112
13.8788	1.42794	1.31022	40.1794
13.9798	1.42794	1.31022	39.8418
14.0808	1.42794	1.31022	39.4976
14.1818	1.42794	1.31022	39.1452
14.2828	1.42794	1.31022	38.7833
14.3838	1.42794	1.31022	38.4099
14.4848	1.42794	1.31022	38.0226
14.5859	1.42794	1.31022	37.6188
14.6869	1.42794	1.31022	37.195
14.7879	1.42794	1.31022	36.7468
14.8889	1.42794	1.31022	36.269
14.9899	1.42794	1.31022	35.7551
15.0909	1.42794	1.31022	35.197
15.1919	1.42794	1.31022	34.5846
15.2929	1.42794	1.31022	33.9053
15.3939	1.42794	1.31022	33.1432
15.4949	1.42794	1.31022	32.2783
15.596	1.42794	1.31022	31.2849
15.697	1.42794	1.31022	30.13
15.798	1.42794	1.31022	28.7704
15.899	1.42794	1.31022	27.1428
16	1.42794	1.31022	-inf
6	1.44221	1.33906	57.6628
6.10101	1.44221	1.33906	57.5619
6.20202	1.44221	1.33906	57.4552
6.30303	1.44221	1.33906	57.3404
6.40404	1.44221	1.33906	57.216
6.50505	1.44221	1.33906	57.0816
6.60606	1.44221	1.33906	56.9371
6.70707	1.44221	1.33906	56.7833
6.80808	1.44221	1.33906	56.6212
6.90909	1.44221	1.33906	56.4519
7.0101	1.44221	1.33906	56.2766
7.11111	1.44221	1.33906	56.0961
7.21212	1.44221	1.33906	55.9115
7.31313	1.44221	1.33906	55.7234
7.41414	1.44221	1.33906	55.5325
7.51515	1.44221	1.33906	55.3394
7.61616	1.44221	1.33906	55.1445
7.71717	1.44221	1.33906	54.9481
7.81818	1.44221	1.33906	54.7506
7.91919	1.44221	1.33906	54.5521
8.0202	1.44221	1.33906	54.3529
8.12121	1.44221	1.33906	54.1531
8.22222	1.44221	1.33906	53.9529
8.32323	1.44221	1.33906	53.7522
8.42424	1.44221	1.33906	53.5513
8.52525	1.44221	1.33906	53.3501
8.62626	1.44221	1.33906	53.1487
8.72727	1.44221	1.33906	52.9471
8.82828	1.44221	1.33906	52.7454
8.92929	1.44221	1.33906	52.5436
9.0303	1.44221	1.33906	52.3417
9.13131	1.44221	1.33906	52.1396
9.23232	1.44221	1.33906	51.9374
9.33333	1.44221	1.33906	51.7351
9.43434	1.44221	1.33906	51.5326
9.53535	1.44221	1.33906	51.3299
9.63636	1.44221	1.33906	51.1271
9.73737	1.44221	1.33906	50.9239
9.83838	1.44221	1.33906	50.7204
9.93939	1.44221	1.33906	50.5165
10.0404	1.44221	1.33906	50.3121
10.1414	1.44221	1.33906	50.107
10.2424	1.44221	1.33906	49.9011
10.3434	1.44221	1.33906	49.6942
10.4444	1.44221	1.33906	49.486
10.5455	1.44221	1.33906	49.2762
10.6465	1.44221	1.33906	49.0645
10.7475	1.44221	1.33906	48.8505
10.8485	1.44221	1.33906	48.6337
10.9495	1.44221	1.33906	48.4135
11.0505	1.44221	1.33906	48.1896
11.1515	1.44221	1.33906	47.9612
11.2525	1.44221	1.33906	47.7279
11.3535	1.44221	1.33906	47.4893
11.4545	1.44221	1.33906	47.2449
11.5556	1.44221	1.33906	46.9946
11.6566	1.44221	1.33906	46.7382
11.7576	1.44221	1.33906	46.4759
11.8586	1.44221	1.33906	46.2079
11.9596	1.44221	1.33906	45.9346
12.0606	1.44221	1.33906	45.6563
12.1616	1.44221	1.33906	45.3735
12.2626	1.44221	1.33906	45.0868
12.3636	1.44221	1.33906	44.7965
12.4646	1.44221	1.33906	44.5032
12.5657	1.44221	1.33906	44.2071
12.6667	1.44221	1.33906	43.9086
12.7677	1.44221	1.33906	43.6079
12.8687	1.44221	1.33906	43.305
12.9697	1.44221	1.33906	43.0002
13.0707	1.44221	1.33906	42.6934
13.1717	1.44221	1.33906	42.3845
13.2727	1.44221	1.33906	42.0734
13.3737	1.44221	1.33906	41.7599
13.4747	1.44221	1.33906	41.4437
13.5758	1.44221	1.33906	41.1244
13.6768	1.44221	1.33906	40.8016
13.7778	1.44221	1.33906	40.4747
13.8788	1.44221	1.33906	40.1429
13.9798	1.44221	1.33906	39.8054
14.0808	1.44221	1.33906	39.4611
14.1818	1.44221	1.33906	39.1087
14.2828	1.44221	1.33906	38.7468
14.3838	1.44221	1.33906	38.3734
14.4848	1.44221	1.33906	37.9861
14.5859	1.44221	1.33906	37.5823
14.6869	1.44221	1.33906	37.1584
14.7879	1.44221	1.33906	36.7102
14.8889	1.44221	1.33906	36.2325
14.9899	1.44221	1.33906	35.7186
15.0909	1.44221	1.33906	35.1605
15.1919	1.44221	1.33906	34.5481
15.2929	1.44221	1.33906	33.8688
15.3939	1.44221	1.33906	33.1067
15.4949	1.44221	1.33906	32.2418
15.596	1.44221	1.33906	31.2484
15.697	1.44221	1.33906	30.0935
15.798	1.44221	1.33906	28.7338
15.899	1.44221	1.33906	27.1063
16	1.44221	1.33906	-inf
6	1.45647	1.36819	57.6363
6.10101	1.45647	1.36819	57.5352
6.20202	1.45647	1.36819	57.4281
6.30303	1.45647	1.36819	57.3131
6.40404	1.45647	1.36819	57.1886
6.50505	1.45647	1.36819	57.0539
6.60606	1.45647	1.36819	56.9093
6.70707	1.45647	1.36819	56.7554
6.80808	1.45647	1.36819	56.5933
6.90909	1.45647	1.36819	56.4239
7.0101	1.45647	1.36819	56.2485
7.11111	1.45647	1.36819	56.068
7.21212	1.45647	1.36819	55.8833
7.31313	1.45647	1.36819	55.6952
7.41414	1.45647	1.36819	55.5043
7.51515	1.45647	1.36819	55.3112
7.61616	1.45647	1.36819	55.1162
7.71717	1.45647	1.36819	54.9199
7.81818	1.45647	1.36819	54.7223
7.91919	1.45647	1.36819	54.5239
8.0202	1.45647	1.36819	54.3247
8.12121	1.45647	1.36819	54.1249
8.22222	1.45647	1.36819	53.9246
8.32323	1.45647	1.36819	53.724
8.42424	1.45647	1.36819	53.523
8.52525	1.45647	1.36819	53.3218
8.62626	1.45647	1.36819	53.1204
8.72727	1.45647	1.36819	52.9189
8.82828	1.45647	1.36819	52.7171
8.92929	1.45647	1.36819	52.5153
9.0303	1.45647	1.36819	52.3133
9.13131	1.45647	1.36819	52.1113
9.23232	1.45647	1.36819	51.9091
9.33333	1.45647	1.36819	51.7067
9.43434	1.45647	1.36819	51.5042
9.53535	1.45647	1.36819	51.3015
9.63636	1.45647	1.36819	51.0986
9.73737	1.45647	1.36819	50.8955
9.83838	1.45647	1.36819	50.692
9.93939	1.45647	1.36819	50.488
10.0404	1.45647	1.36819	50.2835
10.1414	1.45647	1.36819	50.0784
10.2424	1.45647	1.36819	49.8724
10.3434	1.45647	1.36819	49.6653
10.4444	1.45647	1.36819	49.457
10.5455	1.45647	1.36819	49.2471
10.6465	1.45647	1.36819	49.0352
10.7475	1.45647	1.36819	48.8209
10.8485	1.45647	1.36819	48.6038
10.9495	1.45647	1.36819	48.3834
11.0505	1.45647	1.36819	48.159
11.1515	1.45647	1.36819	47.9303
11.2525	1.45647	1.36819	47.6966
11.3535	1.45647	1.36819	47.4575
11.4545	1.45647	1.36819	47.2127
11.5556	1.45647	1.36819	46.9619
11.6566	1.45647	1.36819	46.7051
11.7576	1.45647	1.36819	46.4424
11.8586	1.45647	1.36819	46.1739
11.9596	1.45647	1.36819	45.9002
12.0606	1.45647	1.36819	45.6216
12.1616	1.45647	1.36819	45.3385
12.2626	1.45647	1.36819	45.0515
12.3636	1.45647	1.36819	44.7611
12.4646	1.45647	1.36819	44.4675
12.5657	1.45647	1.36819	44.1713
12.6667	1.45647	1.36819	43.8727
12.7677	1.45647	1.36819	43.5718
12.8687	1.45647	1.36819	43.2689
12.9697	1.45647	1.36819	42.964
13.0707	1.45647	1.36819	42.6571
13.1717	1.45647	1.36819	42.3482
13.2727	1.45647	1.36819	42.0371
13.3737	1.45647	1.36819	41.7236
13.4747	1.45647	1.36819	41.4073
13.5758	1.45647	1.36819	41.0881
13.6768	1.45647	1.36819	40.7652
13.7778	1.45647	1.36819	40.4383
13.8788	1.45647	1.36819	40.1065
13.9798	1.45647	1.36819	39.7689
14.0808	1.45647	1.36819	39.4246
14.1818	1.45647	1.36819	39.0723
14.2828	1.45647	1.36819	38.7103
14.3838	1.45647	1.36819	38.3369
14.4848	1.45647	1.36819	37.9497
14.5859	1.45647	1.36819	37.5459
14.6869	1.45647	1.36819	37.122
14.7879	1.45647	1.36819	36.6738
14.8889	1.45647	1.36819	36.196
14.9899	1.45647	1.36819	35.6821
15.0909	1.45647	1.36819	35.124
15.1919	1.45647	1.36819	34.5116
15.2929	1.45647	1.36819	33.8323
15.3939	1.45647	1.36819	33.0702
15.4949	1.45647	1.36819	32.2053
15.596	1.45647	1.36819	31.212
15.697	1.45647	1.36819	30.0571
15.798	1.45647	1.36819	28.6974
15.899	1.45647	1.36819	27.0699
16	1.45647	1.36819	-inf
6	1.47073	1.39327	57.6044
6.10101	1.47073	1.39327	57.5029
6.20202	1.47073	1.39327	57.3955
6.30303	1.47073	1.39327	57.2803
6.40404	1.47073	1.39327	57.1555
6.50505	1.47073	1.39327	57.0207
6.60606	1.47073	1.39327	56.8759
6.70707	1.47073	1.39327	56.722
6.80808	1.47073	1.39327	56.5597
6.90909	1.47073	1.39327	56.3903
7.0101	1.47073	1.39327	56.2148
7.11111	1.47073	1.39327	56.0343
7.21212	1.47073	1.39327	55.8496
7.31313	1.47073	1.39327	55.6614
7.41414	1.47073	1.39327	55.4705
7.51515	1.47073	1.39327	55.2774
7.61616	1.47073	1.39327	55.0824
7.71717	1.47073	1.39327	54.886
7.81818	1.47073	1.39327	54.6885
7.91919	1.47073	1.39327	54.49
8.0202	1.47073	1.39327	54.2908
8.12121	1.47073	1.39327	54.091
8.22222	1.47073	1.39327	53.8908
8.32323	1.47073	1.39327	53.6901
8.42424	1.47073	1.39327	53.4892
8.52525	1.47073	1.39327	53.288
8.62626	1.47073	1.39327	53.0866
8.72727	1.47073	1.39327	52.885
8.82828	1.47073	1.39327	52.6833
8.92929	1.47073	1.39327	52.4814
9.0303	1.47073	1.39327	52.2795
9.13131	1.47073	1.39327	52.0774
9.23232	1.47073	1.39327	51.8752
9.33333	1.47073	1.39327	51.6728
9.43434	1.47073	1.39327	51.4703
9.53535	1.47073	1.39327	51.2676
9.63636	1.47073	1.39327	51.0647
9.73737	1.47073	1.39327	50.8615
9.83838	1.47073	1.39327	50.6579
9.93939	1.47073	1.39327	50.4539
10.0404	1.47073	1.39327	50.2494
10.1414	1.47073	1.39327	50.0441
10.2424	1.47073	1.39327	49.838
10.3434	1.47073	1.39327	49.6309
10.4444	1.47073	1.39327	49.4224
10.5455	1.47073	1.39327	49.2123
10.6465	1.47073	1.39327	49.0003
10.7475	1.47073	1.39327	48.7858
10.8485	1.47073	1.39327	48.5684
10.9495	1.47073	1.39327	48.3477
11.0505	1.47073	1.39327	48.1231
11.1515	1.47073	1.39327	47.894
11.2525	1.47073	1.39327	47.6599
11.3535	1.47073	1.39327	47.4204
11.4545	1.47073	1.39327	47.1752
11.5556	1.47073	1.39327	46.9239
11.6566	1.47073	1.39327	46.6667
11.7576	1.47073	1.39327	46.4036
11.8586	1.47073	1.39327	46.1348
11.9596	1.47073	1.39327	45.8607
12.0606	1.47073	1.39327	45.5818
12.1616	1.47073	1.39327	45.2984
12.2626	1.47073	1.39327	45.0112
12.3636	1.47073	1.39327	44.7206
12.4646	1.47073	1.39327	44.4269
12.5657	1.47073	1.39327	44.1305
12.6667	1.47073	1.39327	43.8318
12.7677	1.47073	1.39327	43.5308
12.8687	1.47073	1.39327	43.2278
12.9697	1.47073	1.39327	42.9229
13.0707	1.47073	1.39327	42.616
13.1717	1.47073	1.39327	42.307
13.2727	1.47073	1.39327	41.9958
13.3737	1.47073	1.39327	41.6823
13.4747	1.47073	1.39327	41.3661
13.5758	1.47073	1.39327	41.0468
13.6768	1.47073	1.39327	40.7239
13.7778	1.47073	1.39327	40.3969
13.8788	1.47073	1.39327	40.0651
13.9798	1.47073	1.39327	39.7276
14.0808	1.47073	1.39327	39.3833
14.1818	1.47073	1.39327	39.0309
14.2828	1.47073	1.39327	38.669
14.3838	1.47073	1.39327	38.2956
14.4848	1.47073	1.39327	37.9083
14.5859	1.47073	1.39327	37.5045
14.6869	1.47073	1.39327	37.0806
14.7879	1.47073	1.39327	36.6324
14.8889	1.47073	1.39327	36.1547
14.9899	1.47073	1.39327	35.6408
15.0909	1.47073	1.39327	35.0827
15.1919	1.47073	1.39327	34.4703
15.2929	1.47073	1.39327	33.791
15.3939	1.47073	1.39327	33.0289
15.4949	1.47073	1.39327	32.164
15.596	1.47073	1.39327	31.1706
15.697	1.47073	1.39327	30.0157
15.798	1.47073	1.39327	28.656
15.899	1.47073	1.39327	27.0285
16	1.47073	1.39327	-inf
6	1.485	1.42754	57.5834
6.10101	1.485	1.42754	57.4817
6.20202	1.485	1.42754	57.3741
6.30303	1.485	1.42754	57.2586
6.40404	1.485	1.42754	57.1337
6.50505	1.485	1.42754	56.9988
6.60606	1.485	1.42754	56.8539
6.70707	1.485	1.42754	56.6999
6.80808	1.485	1.42754	56.5376
6.90909	1.485	1.42754	56.3681
7.0101	1.485	1.42754	56.1926
7.11111	1.485	1.42754	56.012
7.21212	1.485	1.42754	55.8273
7.31313	1.485	1.42754	55.6391
7.41414	1.485	1.42754	55.4482
7.51515	1.485	1.42754	55.255
7.61616	1.485	1.42754	55.0601
7.71717	1.485	1.42754	54.8637
7.81818	1.485	1.42754	54.6661
7.91919	1.485	1.42754	54.4676
8.0202	1.485	1.42754	54.2684
8.12121	1.485	1.42754	54.0686
8.22222	1.485	1.42754	53.8684
8.32323	1.485	1.42754	53.6677
8.42424	1.485	1.42754	53.4667
8.52525	1.485	1.42754	53.2655
8.62626	1.485	1.42754	53.0641
8.72727	1.485	1.42754	52.8626
8.82828	1.485	1.42754	52.6609
8.92929	1.485	1.42754	52.459
9.0303	1.485	1.42754	52.257
9.13131	1.485	1.42754	52.0549
9.23232	1.485	1.42754	51.8527
9.33333	1.485	1.42754	51.6503
9.43434	1.485	1.42754	51.4478
9.53535	1.485	1.42754	51.2451
9.63636	1.485	1.42754	51.0421
9.73737	1.485	1.42754	50.8389
9.83838	1.485	1.42754	50.6353
9.93939	1.485	1.42754	50.4312
10.0404	1.485	1.42754	50.2266
10.1414	1.485	1.42754	50.0213
10.2424	1.485	1.42754	49.8151
10.3434	1.485	1.42754	49.6079
10.4444	1.485	1.42754	49.3992
10.5455	1.485	1.42754	49.189
10.6465	1.485	1.42754	48.9767
10.7475	1.485	1.42754	48.762
10.8485	1.485	1.42754	48.5443
10.9495	1.485	1.42754	48.3233
11.0505	1.485	1.42754	48.0982
11.1515	1.485	1.42754	47.8687
11.2525	1.485	1.42754	47.6342
11.3535	1.485	1.42754	47.3942
11.4545	1.485	1.42754	47.1484
11.5556	1.485	1.42754	46.8967
11.6566	1.485	1.42754	46.639
11.7576	1.485	1.42754	46.3754
11.8586	1.485	1.42754	46.1061
11.9596	1.485	1.42754	45.8316
12.0606	1.485	1.42754	45.5523
12.1616	1.485	1.42754	45.2687
12.2626	1.485	1.42754	44.9812
12.3636	1.485	1.42754	44.6903
12.4646	1.485	1.42754	44.3964
12.5657	1.485	1.42754	44.0999
12.6667	1.485	1.42754	43.801
12.7677	1.485	1.42754	43.4999
12.8687	1.485	1.42754	43.1969
12.9697	1.485	1.42754	42.8918
13.0707	1.485	1.42754	42.5848
13.1717	1.485	1.42754	42.2758
13.2727	1.485	1.42754	41.9646
13.3737	1.485	1.42754	41.6511
13.4747	1.485	1.42754	41.3348
13.5758	1.485	1.42754	41.0155
13.6768	1.485	1.42754	40.6926
13.7778	1.485	1.42754	40.3656
13.8788	1.485	1.42754	40.0338
13.9798	1.485	1.42754	39.6963
14.0808	1.485	1.42754	39.352
14.1818	1.485	1.42754	38.9996
14.2828	1.485	1.42754	38.6377
14.3838	1.485	1.42754	38.2642
14.4848	1.485	1.42754	37.877
14.5859	1.485	1.42754	37.4732
14.6869	1.485	1.42754	37.0493
14.7879	1.485	1.42754	36.6011
14.8889	1.485	1.42754	36.1233
14.9899	1.485	1.42754	35.6094
15.0909	1.485	1.42754	35.0513
15.1919	1.485	1.42754	34.4389
15.2929	1.485	1.42754	33.7596
15.3939	1.485	1.42754	32.9975
15.4949	1.485	1.42754	32.1326
15.596	1.485	1.42754	31.1393
15.697	1.485	1.42754	29.9844
15.798	1.485	1.42754	28.6247
15.899	1.485	1.42754	26.9972
16	1.485	1.42754	-inf
6	1.49926	1.44911	57.5461
6.10101	1.49926	1.44911	57.4441
6.20202	1.49926	1.44911	57.3362
6.30303	1.49926	1.44911	57.2205
6.40404	1.49926	1.44911	57.0954
6.50505	1.49926	1.44911	56.9603
6.60606	1.49926	1.44911	56.8153
6.70707	1.49926	1.44911	56.6612
6.80808	1.49926	1.44911	56.4988
6.90909	1.49926	1.44911	56.3293
7.0101	1.49926	1.44911	56.1537
7.11111	1.49926	1.44911	55.9731
7.21212	1.49926	1.44911	55.7883
7.31313	1.49926	1.44911	55.6001
7.41414	1.49926	1.44911	55.4092
7.51515	1.49926	1.44911	55.216
7.61616	1.49926	1.44911	55.021
7.71717	1.49926	1.44911	54.8246
7.81818	1.49926	1.44911	54.6271
7.91919	1.49926	1.44911	54.4286
8.0202	1.49926	1.44911	54.2294
8.12121	1.49926	1.44911	54.0296
8.22222	1.49926	1.44911	53.8293
8.32323	1.49926	1.44911	53.6286
8.42424	1.49926	1.44911	53.4277
8.52525	1.49926	1.44911	53.2265
8.62626	1.49926	1.44911	53.0251
8.72727	1.49926	1.44911	52.8235
8.82828	1.49926	1.44911	52.6218
8.92929	1.49926	1.44911	52.4199
9.0303	1.49926	1.44911	52.2179
9.13131	1.49926	1.44911	52.0158
9.23232	1.49926	1.44911	51.8136
9.33333	1.49926	1.44911	51.6112
9.43434	1.49926	1.44911	51.4087
9.53535	1.49926	1.44911	51.2059
9.63636	1.49926	1.44911	51.0029
9.73737	1.49926	1.44911	50.7997
9.83838	1.49926	1.44911	50.596
9.93939	1.49926	1.44911	50.3919
10.0404	1.49926	1.44911	50.1872
10.1414	1.49926	1.44911	49.9819
10.2424	1.49926	1.44911	49.7756
10.3434	1.49926	1.44911	49.5682
10.4444	1.49926	1.44911	49.3595
10.5455	1.49926	1.44911	49.1491
10.6465	1.49926	1.44911	48.9366
10.7475	1.49926	1.44911	48.7217
10.8485	1.49926	1.44911	48.5038
10.9495	1.49926	1.44911	48.2825
11.0505	1.49926	1.44911	48.0572
11.1515	1.49926	1.44911	47.8273
11.2525	1.49926	1.44911	47.5924
11.3535	1.49926	1.44911	47.3521
11.4545	1.49926	1.44911	47.1059
11.5556	1.49926	1.44911	46.8538
11.6566	1.49926	1.44911	46.5957
11.7576	1.49926	1.44911	46.3317
11.8586	1.49926	1.44911	46.0621
11.9596	1.49926	1.44911	45.7873
12.0606	1.49926	1.44911	45.5077
12.1616	1.49926	1.44911	45.2239
12.2626	1.49926	1.44911	44.9362
12.3636	1.49926	1.44911	44.6451
12.4646	1.49926	1.44911	44.3511
12.5657	1.49926	1.44911	44.0544
12.6667	1.49926	1.44911	43.7554
12.7677	1.49926	1.44911	43.4543
12.8687	1.49926	1.44911	43.1512
12.9697	1.49926	1.44911	42.8461
13.0707	1.49926	1.44911	42.539
13.1717	1.49926	1.44911	42.23
13.2727	1.49926	1.44911	41.9188
13.3737	1.49926	1.44911	41.6052
13.4747	1.49926	1.44911	41.2889
13.5758	1.49926	1.44911	40.9696
13.6768	1.49926	1.44911	40.6467
13.7778	1.49926	1.44911	40.3197
13.8788	1.49926	1.44911	39.9879
13.9798	1.49926	1.44911	39.6503
14.0808	1.49926	1.44911	39.306
14.1818	1.49926	1.44911	38.9537
14.2828	1.49926	1.44911	38.5917
14.3838	1.49926	1.44911	38.2183
14.4848	1.49926	1.44911	37.831
14.5859	1.49926	1.44911	37.4272
14.6869	1.49926	1.44911	37.0033
14.7879	1.49926	1.44911	36.5551
14.8889	1.49926	1.44911	36.0773
14.9899	1.49926	1.44911	35.5635
15.0909	1.49926	1.44911	35.0054
15.1919	1.49926	1.44911	34.393
15.2929	1.49926	1.44911	33.7137
15.3939	1.49926	1.44911	32.9516
15.4949	1.49926	1.44911	32.0866
15.596	1.49926	1.44911	31.0933
15.697	1.49926	1.44911	29.9384
15.798	1.49926	1.44911	28.5787
15.899	1.49926	1.44911	26.9512
16	1.49926	1.44911	-inf
6	1.51353	1.48426	57.5251
6.10101	1.51353	1.48426	57.4228
6.20202	1.51353	1.48426	57.3148
6.30303	1.51353	1.48426	57.1989
6.40404	1.51353	1.48426	57.0737
6.50505	1.51353	1.48426	56.9385
6.60606	1.51353	1.48426	56.7934
6.70707	1.51353	1.48426	56.6392
6.80808	1.51353	1.48426	56.4767
6.90909	1.51353	1.48426	56.3072
7.0101	1.51353	1.48426	56.1316
7.11111	1.51353	1.48426	55.9509
7.21212	1.51353	1.48426	55.7661
7.31313	1.51353	1.48426	55.5779
7.41414	1.51353	1.48426	55.387
7.51515	1.51353	1.48426	55.1938
7.61616	1.51353	1.48426	54.9988
7.71717	1.51353	1.48426	54.8024
7.81818	1.51353	1.48426	54.6048
7.91919	1.51353	1.48426	54.4063
8.0202	1.51353	1.48426	54.2071
8.12121	1.51353	1.48426	54.0073
8.22222	1.51353	1.48426	53.807
8.32323	1.51353	1.48426	53.6064
8.42424	1.51353	1.48426	53.4054
8.52525	1.51353	1.48426	53.2042
8.62626	1.51353	1.48426	53.0028
8.72727	1.51353	1.48426	52.8012
8.82828	1.51353	1.48426	52.5995
8.92929	1.51353	1.48426	52.3976
9.0303	1.51353	1.48426	52.1956
9.13131	1.51353	1.48426	51.9935
9.23232	1.51353	1.48426	51.7913
9.33333	1.51353	1.48426	51.5889
9.43434	1.51353	1.48426	51.3863
9.53535	1.51353	1.48426	51.1835
9.63636	1.51353	1.48426	50.9805
9.73737	1.51353	1.48426	50.7772
9.83838	1.51353	1.48426	50.5735
9.93939	1.51353	1.48426	50.3694
10.0404	1.51353	1.48426	50.1646
10.1414	1.51353	1.48426	49.9592
10.2424	1.51353	1.48426	49.7528
10.3434	1.51353	1.48426	49.5453
10.4444	1.51353	1.48426	49.3364
10.5455	1.51353	1.48426	49.1258
10.6465	1.51353	1.48426	48.9131
10.7475	1.51353	1.48426	48.698
10.8485	1.51353	1.48426	48.4798
10.9495	1.51353	1.48426	48.2581
11.0505	1.51353	1.48426	48.0324
11.1515	1.51353	1.48426	47.8021
11.2525	1.51353	1.48426	47.5668
11.3535	1.51353	1.48426	47.3259
11.4545	1.51353	1.48426	47.0793
11.5556	1.51353	1.48426	46.8266
11.6566	1.51353	1.48426	46.568
11.7576	1.51353	1.48426	46.3036
11.8586	1.51353	1.48426	46.0335
11.9596	1.51353	1.48426	45.7583
12.0606	1.51353	1.48426	45.4784
12.1616	1.51353	1.48426	45.1942
12.2626	1.51353	1.48426	44.9062
12.3636	1.51353	1.48426	44.6149
12.4646	1.51353	1.48426	44.3206
12.5657	1.51353	1.48426	44.0238
12.6667	1.51353	1.48426	43.7247
12.7677	1.51353	1.48426	43.4235
12.8687	1.51353	1.48426	43.1202
12.9697	1.51353	1.48426	42.8151
13.0707	1.51353	1.48426	42.508
13.1717	1.51353	1.48426	42.1989
13.2727	1.51353	1.48426	41.8877
13.3737	1.51353	1.48426	41.574
13.4747	1.51353	1.48426	41.2577
13.5758	1.51353	1.48426	40.9384
13.6768	1.51353	1.48426	40.6155
13.7778	1.51353	1.48426	40.2885
13.8788	1.51353	1.48426	39.9566
13.9798	1.51353	1.48426	39.6191
14.0808	1.51353	1.48426	39.2748
14.1818	1.51353	1.48426	38.9224
14.2828	1.51353	1.48426	38.5604
14.3838	1.51353	1.48426	38.187
14.4848	1.51353	1.48426	37.7998
14.5859	1.51353	1.48426	37.396
14.6869	1.51353	1.48426	36.9721
14.7879	1.51353	1.48426	36.5239
14.8889	1.51353	1.48426	36.0461
14.9899	1.51353	1.48426	35.5322
15.0909	1.51353	1.48426	34.9741
15.1919	1.51353	1.48426	34.3617
15.2929	1.51353	1.48426	33.6824
15.3939	1.51353	1.48426	32.9203
15.4949	1.51353	1.48426	32.0554
15.596	1.51353	1.48426	31.062
15.697	1.51353	1.48426	29.9071
15.798	1.51353	1.48426	28.5474
15.899	1.51353	1.48426	26.9199
16	1.51353	1.48426	-inf
6	1.52779	1.51123	57.4934
6.10101	1.52779	1.51123	57.3909
6.20202	1.52779	1.51123	57.2826
6.30303	1.52779	1.51123	57.1666
6.40404	1.52779	1.51123	57.0412
6.50505	1.52779	1.51123	56.9058
6.60606	1.52779	1.51123	56.7607
6.70707	1.52779	1.51123	56.6063
6.80808	1.52779	1.51123	56.4438
6.90909	1.52779	1.51123	56.2742
7.0101	1.52779	1.51123	56.0986
7.11111	1.52779	1.51123	55.9179
7.21212	1.52779	1.51123	55.7331
7.31313	1.52779	1.51123	55.5449
7.41414	1.52779	1.51123	55.3539
7.51515	1.52779	1.51123	55.1607
7.61616	1.52779	1.51123	54.9657
7.71717	1.52779	1.51123	54.7693
7.81818	1.52779	1.51123	54.5717
7.91919	1.52779	1.51123	54.3732
8.0202	1.52779	1.51123	54.174
8.12121	1.52779	1.51123	53.9742
8.22222	1.52779	1.51123	53.7739
8.32323	1.52779	1.51123	53.5732
8.42424	1.52779	1.51123	53.3723
8.52525	1.52779	1.51123	53.1711
8.62626	1.52779	1.51123	52.9697
8.72727	1.52779	1.51123	52.7681
8.82828	1.52779	1.51123	52.5663
8.92929	1.52779	1.51123	52.3645
9.0303	1.52779	1.51123	52.1625
9.13131	1.52779	1.51123	51.9603
9.23232	1.52779	1.51123	51.7581
9.33333	1.52779	1.51123	51.5557
9.43434	1.52779	1.51123	51.3531
9.53535	1.52779	1.51123	51.1503
9.63636	1.52779	1.51123	50.9473
9.73737	1.52779	1.51123	50.7439
9.83838	1.52779	1.51123	50.5402
9.93939	1.52779	1.51123	50.336
10.0404	1.52779	1.51123	50.1312
10.1414	1.52779	1.51123	49.9256
10.2424	1.52779	1.51123	49.7192
10.3434	1.52779	1.51123	49.5116
10.4444	1.52779	1.51123	49.3026
10.5455	1.52779	1.51123	49.0918
10.6465	1.52779	1.51123	48.8789
10.7475	1.52779	1.51123	48.6635
10.8485	1.52779	1.51123	48.4451
10.9495	1.52779	1.51123	48.2231
11.0505	1.52779	1.51123	47.9971
11.1515	1.52779	1.51123	47.7664
11.2525	1.52779	1.51123	47.5307
11.3535	1.52779	1.51123	47.2894
11.4545	1.52779	1.51123	47.0423
11.5556	1.52779	1.51123	46.7892
11.6566	1.52779	1.51123	46.5302
11.7576	1.52779	1.51123	46.2653
11.8586	1.52779	1.51123	45.9949
11.9596	1.52779	1.51123	45.7194
12.0606	1.52779	1.51123	45.4391
12.1616	1.52779	1.51123	45.1546
12.2626	1.52779	1.51123	44.8664
12.3636	1.52779	1.51123	44.5749
12.4646	1.52779	1.51123	44.2805
12.5657	1.52779	1.51123	43.9836
12.6667	1.52779	1.51123	43.6843
12.7677	1.52779	1.51123	43.383
12.8687	1.52779	1.51123	43.0797
12.9697	1.52779	1.51123	42.7745
13.0707	1.52779	1.51123	42.4674
13.1717	1.52779	1.51123	42.1582
13.2727	1.52779	1.51123	41.847
13.3737	1.52779	1.51123	41.5333
13.4747	1.52779	1.51123	41.217
13.5758	1.52779	1.51123	40.8976
13.6768	1.52779	1.51123	40.5747
13.7778	1.52779	1.51123	40.2477
13.8788	1.52779	1.51123	39.9158
13.9798	1.52779	1.51123	39.5783
14.0808	1.52779	1.51123	39.234
14.1818	1.52779	1.51123	38.8816
14.2828	1.52779	1.51123	38.5196
14.3838	1.52779	1.51123	38.1462
14.4848	1.52779	1.51123	37.759
14.5859	1.52779	1.51123	37.3551
14.6869	1.52779	1.51123	36.9313
14.7879	1.52779	1.51123	36.4831
14.8889	1.52779	1.51123	36.0053
14.9899	1.52779	1.51123	35.4914
15.0909	1.52779	1.51123	34.9333
15.1919	1.52779	1.51123	34.3209
15.2929	1.52779	1.51123	33.6416
15.3939	1.52779	1.51123	32.8795
15.4949	1.52779	1.51123	32.0146
15.596	1.52779	1.51123	31.0212
15.697	1.52779	1.51123	29.8663
15.798	1.52779	1.51123	28.5066
15.899	1.52779	1.51123	26.8791
16	1.52779	1.51123	-inf
6	1.54206	1.5431	57.4671
6.10101	1.54206	1.5431	57.3643
6.20202	1.54206	1.5431	57.2559
6.30303	1.54206	1.5431	57.1397
6.40404	1.54206	1.5431	57.0142
6.50505	1.54206	1.5431	56.8787
6.60606	1.54206	1.5431	56.7334
6.70707	1.54206	1.5431	56.5791
6.80808	1.54206	1.5431	56.4165
6.90909	1.54206	1.5431	56.2468
7.0101	1.54206	1.5431	56.0712
7.11111	1.54206	1.5431	55.8905
7.21212	1.54206	1.5431	55.7056
7.31313	1.54206	1.5431	55.5174
7.41414	1.54206	1.5431	55.3264
7.51515	1.54206	1.5431	55.1332
7.61616	1.54206	1.5431	54.9382
7.71717	1.54206	1.5431	54.7418
7.81818	1.54206	1.5431	54.5442
7.91919	1.54206	1.5431	54.3457
8.0202	1.54206	1.5431	54.1465
8.12121	1.54206	1.5431	53.9467
8.22222	1.54206	1.5431	53.7464
8.32323	1.54206	1.5431	53.5457
8.42424	1.54206	1.5431	53.3447
8.52525	1.54206	1.5431	53.1435
8.62626	1.54206	1.5431	52.9421
8.72727	1.54206	1.5431	52.7405
8.82828	1.54206	1.5431	52.5388
8.92929	1.54206	1.5431	52.3369
9.0303	1.54206	1.5431	52.1349
9.13131	1.54206	1.5431	51.9327
9.23232	1.54206	1.5431	51.7305
9.33333	1.54206	1.5431	51.528
9.43434	1.54206	1.5431	51.3254
9.53535	1.54206	1.5431	51.1226
9.63636	1.54206	1.5431	50.9196
9.73737	1.54206	1.5431	50.7162
9.83838	1.54206	1.5431	50.5124
9.93939	1.54206	1.5431	50.3082
10.0404	1.54206	1.5431	50.1033
10.1414	1.54206	1.5431	49.8977
10.2424	1.54206	1.5431	49.6911
10.3434	1.54206	1.5431	49.4834
10.4444	1.54206	1.5431	49.2742
10.5455	1.54206	1.5431	49.0633
10.6465	1.54206	1.5431	48.8502
10.7475	1.54206	1.5431	48.6346
10.8485	1.54206	1.5431	48.4158
10.9495	1.54206	1.5431	48.1936
11.0505	1.54206	1.5431	47.9671
11.1515	1.54206	1.5431	47.7361
11.2525	1.54206	1.5431	47.4999
11.3535	1.54206	1.5431	47.2581
11.4545	1.54206	1.5431	47.0106
11.5556	1.54206	1.5431	46.757
11.6566	1.54206	1.5431	46.4975
11.7576	1.54206	1.5431	46.2322
11.8586	1.54206	1.5431	45.9614
11.9596	1.54206	1.5431	45.6854
12.0606	1.54206	1.5431	45.4048
12.1616	1.54206	1.5431	45.1201
12.2626	1.54206	1.5431	44.8316
12.3636	1.54206	1.5431	44.5399
12.4646	1.54206	1.5431	44.2453
12.5657	1.54206	1.5431	43.9482
12.6667	1.54206	1.5431	43.6489
12.7677	1.54206	1.5431	43.3475
12.8687	1.54206	1.5431	43.0441
12.9697	1.54206	1.5431	42.7388
13.0707	1.54206	1.5431	42.4316
13.1717	1.54206	1.5431	42.1224
13.2727	1.54206	1.5431	41.8111
13.3737	1.54206	1.5431	41.4975
13.4747	1.54206	1.5431	41.1811
13.5758	1.54206	1.5431	40.8617
13.6768	1.54206	1.5431	40.5388
13.7778	1.54206	1.5431	40.2118
13.8788	1.54206	1.5431	39.8799
13.9798	1.54206	1.5431	39.5424
14.0808	1.54206	1.5431	39.198
14.1818	1.54206	1.5431	38.8457
14.2828	1.54206	1.5431	38.4837
14.3838	1.54206	1.5431	38.1103
14.4848	1.54206	1.5431	37.723
14.5859	1.54206	1.5431	37.3192
14.6869	1.54206	1.5431	36.8953
14.7879	1.54206	1.5431	36.4471
14.8889	1.54206	1.5431	35.9693
14.9899	1.54206	1.5431	35.4554
15.0909	1.54206	1.5431	34.8973
15.1919	1.54206	1.5431	34.2849
15.2929	1.54206	1.5431	33.6056
15.3939	1.54206	1.5431	32.8435
15.4949	1.54206	1.5431	31.9786
15.596	1.54206	1.5431	30.9852
15.697	1.54206	1.5431	29.8304
15.798	1.54206	1.5431	28.4707
15.899	1.54206	1.5431	26.8432
16	1.54206	1.5431	-inf
6	1.55632	1.57127	57.4356
6.10101	1.55632	1.57127	57.3326
6.20202	1.55632	1.57127	57.224
6.30303	1.55632	1.57127	57.1076
6.40404	1.55632	1.57127	56.9819
6.50505	1.55632	1.57127	56.8464
6.60606	1.55632	1.57127	56.701
6.70707	1.55632	1.57127	56.5465
6.80808	1.55632	1.57127	56.3839
6.90909	1.55632	1.57127	56.2142
7.0101	1.55632	1.57127	56.0385
7.11111	1.55632	1.57127	55.8578
7.21212	1.55632	1.57127	55.6729
7.31313	1.55632	1.57127	55.4847
7.41414	1.55632	1.57127	55.2937
7.51515	1.55632	1.57127	55.1005
7.61616	1.55632	1.57127	54.9055
7.71717	1.55632	1.57127	54.709
7.81818	1.55632	1.57127	54.5114
7.91919	1.55632	1.57127	54.3129
8.0202	1.55632	1.57127	54.1137
8.12121	1.55632	1.57127	53.9139
8.22222	1.55632	1.57127	53.7136
8.32323	1.55632	1.57127	53.5129
8.42424	1.55632	1.57127	53.312
8.52525	1.55632	1.57127	53.1107
8.62626	1.55632	1.57127	52.9093
8.72727	1.55632	1.57127	52.7077
8.82828	1.55632	1.57127	52.506
8.92929	1.55632	1.57127	52.3041
9.0303	1.55632	1.57127	52.1021
9.13131	1.55632	1.57127	51.8999
9.23232	1.55632	1.57127	51.6977
9.33333	1.55632	1.57127	51.4952
9.43434	1.55632	1.57127	51.2926
9.53535	1.55632	1.57127	51.0898
9.63636	1.55632	1.57127	50.8867
9.73737	1.55632	1.57127	50.6832
9.83838	1.55632	1.57127	50.4794
9.93939	1.55632	1.57127	50.2751
10.0404	1.55632	1.57127	50.0702
10.1414	1.55632	1.57127	49.8645
10.2424	1.55632	1.57127	49.6579
10.3434	1.55632	1.57127	49.45
10.4444	1.55632	1.57127	49.2407
10.5455	1.55632	1.57127	49.0296
10.6465	1.55632	1.57127	48.8163
10.7475	1.55632	1.57127	48.6004
10.8485	1.55632	1.57127	48.3815
10.9495	1.55632	1.57127	48.1589
11.0505	1.55632	1.57127	47.9321
11.1515	1.55632	1.57127	47.7007
11.2525	1.55632	1.57127	47.4641
11.3535	1.55632	1.57127	47.2219
11.4545	1.55632	1.57127	46.9739
11.5556	1.55632	1.57127	46.7199
11.6566	1.55632	1.57127	46.4599
11.7576	1.55632	1.57127	46.1942
11.8586	1.55632	1.57127	45.923
11.9596	1.55632	1.57127	45.6467
12.0606	1.55632	1.57127	45.3658
12.1616	1.55632	1.57127	45.0808
12.2626	1.55632	1.57127	44.7921
12.3636	1.55632	1.57127	44.5002
12.4646	1.55632	1.57127	44.2055
12.5657	1.55632	1.57127	43.9082
12.6667	1.55632	1.57127	43.6088
12.7677	1.55632	1.57127	43.3073
12.8687	1.55632	1.57127	43.0038
12.9697	1.55632	1.57127	42.6985
13.0707	1.55632	1.57127	42.3912
13.1717	1.55632	1.57127	42.082
13.2727	1.55632	1.57127	41.7707
13.3737	1.55632	1.57127	41.457
13.4747	1.55632	1.57127	41.1406
13.5758	1.55632	1.57127	40.8212
13.6768	1.55632	1.57127	40.4983
13.7778	1.55632	1.57127	40.1713
13.8788	1.55632	1.57127	39.8394
13.9798	1.55632	1.57127	39.5018
14.0808	1.55632	1.57127	39.1575
14.1818	1.55632	1.57127	38.8051
14.2828	1.55632	1.57127	38.4431
14.3838	1.55632	1.57127	38.0697
14.4848	1.55632	1.57127	37.6825
14.5859	1.55632	1.57127	37.2786
14.6869	1.55632	1.57127	36.8547
14.7879	1.55632	1.57127	36.4065
14.8889	1.55632	1.57127	35.9288
14.9899	1.55632	1.57127	35.4149
15.0909	1.55632	1.57127	34.8568
15.1919	1.55632	1.57127	34.2444
15.2929	1.55632	1.57127	33.565
15.3939	1.55632	1.57127	32.803
15.4949	1.55632	1.57127	31.938
15.596	1.55632	1.57127	30.9447
15.697	1.55632	1.57127	29.7898
15.798	1.55632	1.57127	28.4301
15.899	1.55632	1.57127	26.8026
16	1.55632	1.57127	-inf
6	1.57059	1.60437	57.4093
6.10101	1.57059	1.60437	57.3062
6.20202	1.57059	1.60437	57.1974
6.30303	1.57059	1.60437	57.0809
6.40404	1.57059	1.60437	56.9551
6.50505	1.57059	1.60437	56.8194
6.60606	1.57059	1.60437	56.674
6.70707	1.57059	1.60437	56.5195
6.80808	1.57059	1.60437	56.3568
6.90909	1.57059	1.60437	56.1871
7.0101	1.57059	1.60437	56.0113
7.11111	1.57059	1.60437	55.8306
7.21212	1.57059	1.60437	55.6457
7.31313	1.57059	1.60437	55.4574
7.41414	1.57059	1.60437	55.2664
7.51515	1.57059	1.60437	55.0732
7.61616	1.57059	1.60437	54.8782
7.71717	1.57059	1.60437	54.6817
7.81818	1.57059	1.60437	54.4842
7.91919	1.57059	1.60437	54.2856
8.0202	1.57059	1.60437	54.0864
8.12121	1.57059	1.60437	53.8866
8.22222	1.57059	1.60437	53.6863
8.32323	1.57059	1.60437	53.4856
8.42424	1.57059	1.60437	53.2847
8.52525	1.57059	1.60437	53.0834
8.62626	1.57059	1.60437	52.882
8.72727	1.57059	1.60437	52.6804
8.82828	1.57059	1.60437	52.4787
8.92929	1.57059	1.60437	52.2768
9.0303	1.57059	1.60437	52.0747
9.13131	1.57059	1.60437	51.8726
9.23232	1.57059	1.60437	51.6703
9.33333	1.57059	1.60437	51.4678
9.43434	1.57059	1.60437	51.2652
9.53535	1.57059	1.60437	51.0623
9.63636	1.57059	1.60437	50.8592
9.73737	1.57059	1.60437	50.6558
9.83838	1.57059	1.60437	50.4519
9.93939	1.57059	1.60437	50.2475
10.0404	1.57059	1.60437	50.0426
10.1414	1.57059	1.60437	49.8368
10.2424	1.57059	1.60437	49.63
10.3434	1.57059	1.60437	49.4221
10.4444	1.57059	1.60437	49.2126
10.5455	1.57059	1.60437	49.0013
10.6465	1.57059	1.60437	48.7878
10.7475	1.57059	1.60437	48.5717
10.8485	1.57059	1.60437	48.3524
10.9495	1.57059	1.60437	48.1295
11.0505	1.57059	1.60437	47.9023
11.1515	1.57059	1.60437	47.6705
11.2525	1.57059	1.60437	47.4334
11.3535	1.57059	1.60437	47.1908
11.4545	1.57059	1.60437	46.9423
11.5556	1.57059	1.60437	46.6878
11.6566	1.57059	1.60437	46.4274
11.7576	1.57059	1.60437	46.1612
11.8586	1.57059	1.60437	45.8896
11.9596	1.57059	1.60437	45.6129
12.0606	1.57059	1.60437	45.3317
12.1616	1.57059	1.60437	45.0464
12.2626	1.57059	1.60437	44.7574
12.3636	1.57059	1.60437	44.4653
12.4646	1.57059	1.60437	44.1704
12.5657	1.57059	1.60437	43.873
12.6667	1.57059	1.60437	43.5735
12.7677	1.57059	1.60437	43.2718
12.8687	1.57059	1.60437	42.9683
12.9697	1.57059	1.60437	42.6629
13.0707	1.57059	1.60437	42.3556
13.1717	1.57059	1.60437	42.0464
13.2727	1.57059	1.60437	41.735
13.3737	1.57059	1.60437	41.4213
13.4747	1.57059	1.60437	41.1049
13.5758	1.57059	1.60437	40.7855
13.6768	1.57059	1.60437	40.4625
13.7778	1.57059	1.60437	40.1355
13.8788	1.57059	1.60437	39.8036
13.9798	1.57059	1.60437	39.466
14.0808	1.57059	1.60437	39.1217
14.1818	1.57059	1.60437	38.7693
14.2828	1.57059	1.60437	38.4073
14.3838	1.57059	1.60437	38.0339
14.4848	1.57059	1.60437	37.6467
14.5859	1.57059	1.60437	37.2428
14.6869	1.57059	1.60437	36.8189
14.7879	1.57059	1.60437	36.3707
14.8889	1.57059	1.60437	35.8929
14.9899	1.57059	1.60437	35.379
15.0909	1.57059	1.60437	34.821
15.1919	1.57059	1.60437	34.2086
15.2929	1.57059	1.60437	33.5292
15.3939	1.57059	1.60437	32.7671
15.4949	1.57059	1.60437	31.9022
15.596	1.57059	1.60437	30.9089
15.697	1.57059	1.60437	29.754
15.798	1.57059	1.60437	28.3943
15.899	1.57059	1.60437	26.7668
16	1.57059	1.60437	-inf
6	1.58485	1.63387	57.378
6.10101	1.58485	1.63387	57.2746
6.20202	1.58485	1.63387	57.1657
6.30303	1.58485	1.63387	57.049
6.40404	1.58485	1.63387	56.9231
6.50505	1.58485	1.63387	56.7873
6.60606	1.58485	1.63387	56.6418
6.70707	1.58485	1.63387	56.4872
6.80808	1.58485	1.63387	56.3245
6.90909	1.58485	1.63387	56.1548
7.0101	1.58485	1.63387	55.979
7.11111	1.58485	1.63387	55.7982
7.21212	1.58485	1.63387	55.6133
7.31313	1.58485	1.63387	55.425
7.41414	1.58485	1.63387	55.234
7.51515	1.58485	1.63387	55.0408
7.61616	1.58485	1.63387	54.8458
7.71717	1.58485	1.63387	54.6493
7.81818	1.58485	1.63387	54.4517
7.91919	1.58485	1.63387	54.2532
8.0202	1.58485	1.63387	54.054
8.12121	1.58485	1.63387	53.8541
8.22222	1.58485	1.63387	53.6538
8.32323	1.58485	1.63387	53.4532
8.42424	1.58485	1.63387	53.2522
8.52525	1.58485	1.63387	53.051
8.62626	1.58485	1.63387	52.8495
8.72727	1.58485	1.63387	52.6479
8.82828	1.58485	1.63387	52.4462
8.92929	1.58485	1.63387	52.2443
9.0303	1.58485	1.63387	52.0423
9.13131	1.58485	1.63387	51.8401
9.23232	1.58485	1.63387	51.6378
9.33333	1.58485	1.63387	51.4353
9.43434	1.58485	1.63387	51.2327
9.53535	1.58485	1.63387	51.0298
9.63636	1.58485	1.63387	50.8266
9.73737	1.58485	1.63387	50.6231
9.83838	1.58485	1.63387	50.4192
9.93939	1.58485	1.63387	50.2148
10.0404	1.58485	1.63387	50.0098
10.1414	1.58485	1.63387	49.8039
10.2424	1.58485	1.63387	49.5971
10.3434	1.58485	1.63387	49.389
10.4444	1.58485	1.63387	49.1794
10.5455	1.58485	1.63387	48.9679
10.6465	1.58485	1.63387	48.7542
10.7475	1.58485	1.63387	48.5379
10.8485	1.58485	1.63387	48.3183
10.9495	1.58485	1.63387	48.095
11.0505	1.58485	1.63387	47.8676
11.1515	1.58485	1.63387	47.6353
11.2525	1.58485	1.63387	47.3978
11.3535	1.58485	1.63387	47.1548
11.4545	1.58485	1.63387	46.9058
11.5556	1.58485	1.63387	46.6509
11.6566	1.58485	1.63387	46.39
11.7576	1.58485	1.63387	46.1234
11.8586	1.58485	1.63387	45.8514
11.9596	1.58485	1.63387	45.5744
12.0606	1.58485	1.63387	45.2929
12.1616	1.58485	1.63387	45.0073
12.2626	1.58485	1.63387	44.7181
12.3636	1.58485	1.63387	44.4258
12.4646	1.58485	1.63387	44.1307
12.5657	1.58485	1.63387	43.8332
12.6667	1.58485	1.63387	43.5335
12.7677	1.58485	1.63387	43.2318
12.8687	1.58485	1.63387	42.9282
12.9697	1.58485	1.63387	42.6228
13.0707	1.58485	1.63387	42.3154
13.1717	1.58485	1.63387	42.0061
13.2727	1.58485	1.63387	41.6947
13.3737	1.58485	1.63387	41.381
13.4747	1.58485	1.63387	41.0646
13.5758	1.58485	1.63387	40.7452
13.6768	1.58485	1.63387	40.4222
13.7778	1.58485	1.63387	40.0951
13.8788	1.58485	1.63387	39.7633
13.9798	1.58485	1.63387	39.4257
14.0808	1.58485	1.63387	39.0813
14.1818	1.58485	1.63387	38.729
14.2828	1.58485	1.63387	38.367
14.3838	1.58485	1.63387	37.9935
14.4848	1.58485	1.63387	37.6063
14.5859	1.58485	1.63387	37.2025
14.6869	1.58485	1.63387	36.7786
14.7879	1.58485	1.63387	36.3304
14.8889	1.58485	1.63387	35.8526
14.9899	1.58485	1.63387	35.3387
15.0909	1.58485	1.63387	34.7806
15.1919	1.58485	1.63387	34.1682
15.2929	1.58485	1.63387	33.4889
15.3939	1.58485	1.63387	32.7268
15.4949	1.58485	1.63387	31.8619
15.596	1.58485	1.63387	30.8685
15.697	1.58485	1.63387	29.7136
15.798	1.58485	1.63387	28.3539
15.899	1.58485	1.63387	26.7264
16	1.58485	1.63387	-inf
6	1.59912	1.66836	57.3518
6.10101	1.59912	1.66836	57.2483
6.20202	1.59912	1.66836	57.1392
6.30303	1.59912	1.66836	57.0224
6.40404	1.59912	1.66836	56.8964
6.50505	1.59912	1.66836	56.7605
6.60606	1.59912	1.66836	56.615
6.70707	1.59912	1.66836	56.4603
6.80808	1.59912	1.66836	56.2976
6.90909	1.59912	1.66836	56.1278
7.0101	1.59912	1.66836	55.952
7.11111	1.59912	1.66836	55.7712
7.21212	1.59912	1.66836	55.5863
7.31313	1.59912	1.66836	55.398
7.41414	1.59912	1.66836	55.207
7.51515	1.59912	1.66836	55.0137
7.61616	1.59912	1.66836	54.8187
7.71717	1.59912	1.66836	54.6222
7.81818	1.59912	1.66836	54.4246
7.91919	1.59912	1.66836	54.2261
8.0202	1.59912	1.66836	54.0269
8.12121	1.59912	1.66836	53.827
8.22222	1.59912	1.66836	53.6267
8.32323	1.59912	1.66836	53.4261
8.42424	1.59912	1.66836	53.2251
8.52525	1.59912	1.66836	53.0239
8.62626	1.59912	1.66836	52.8224
8.72727	1.59912	1.66836	52.6208
8.82828	1.59912	1.66836	52.4191
8.92929	1.59912	1.66836	52.2172
9.0303	1.59912	1.66836	52.0151
9.13131	1.59912	1.66836	51.8129
9.23232	1.59912	1.66836	51.6106
9.33333	1.59912	1.66836	51.4081
9.43434	1.59912	1.66836	51.2055
9.53535	1.59912	1.66836	51.0026
9.63636	1.59912	1.66836	50.7994
9.73737	1.59912	1.66836	50.5959
9.83838	1.59912	1.66836	50.3919
9.93939	1.59912	1.66836	50.1874
10.0404	1.59912	1.66836	49.9823
10.1414	1.59912	1.66836	49.7764
10.2424	1.59912	1.66836	49.5694
10.3434	1.59912	1.66836	49.3612
10.4444	1.59912	1.66836	49.1514
10.5455	1.59912	1.66836	48.9398
10.6465	1.59912	1.66836	48.7259
10.7475	1.59912	1.66836	48.5093
10.8485	1.59912	1.66836	48.2894
10.9495	1.59912	1.66836	48.0658
11.0505	1.59912	1.66836	47.8379
11.1515	1.59912	1.66836	47.6053
11.2525	1.59912	1.66836	47.3673
11.3535	1.59912	1.66836	47.1238
11.4545	1.59912	1.66836	46.8743
11.5556	1.59912	1.66836	46.6189
11.6566	1.59912	1.66836	46.3576
11.7576	1.59912	1.66836	46.0905
11.8586	1.59912	1.66836	45.8181
11.9596	1.59912	1.66836	45.5407
12.0606	1.59912	1.66836	45.2588
12.1616	1.59912	1.66836	44.9729
12.2626	1.59912	1.66836	44.6835
12.3636	1.59912	1.66836	44.391
12.4646	1.59912	1.66836	44.0958
12.5657	1.59912	1.66836	43.7981
12.6667	1.59912	1.66836	43.4983
12.7677	1.59912	1.66836	43.1965
12.8687	1.59912	1.66836	42.8928
12.9697	1.59912	1.66836	42.5873
13.0707	1.59912	1.66836	42.2799
13.1717	1.59912	1.66836	41.9706
13.2727	1.59912	1.66836	41.6591
13.3737	1.59912	1.66836	41.3454
13.4747	1.59912	1.66836	41.0289
13.5758	1.59912	1.66836	40.7095
13.6768	1.59912	1.66836	40.3865
13.7778	1.59912	1.66836	40.0595
13.8788	1.59912	1.66836	39.7276
13.9798	1.59912	1.66836	39.39
14.0808	1.59912	1.66836	39.0456
14.1818	1.59912	1.66836	38.6933
14.2828	1.59912	1.66836	38.3313
14.3838	1.59912	1.66836	37.9578
14.4848	1.59912	1.66836	37.5706
14.5859	1.59912	1.66836	37.1667
14.6869	1.59912	1.66836	36.7429
14.7879	1.59912	1.66836	36.2946
14.8889	1.59912	1.66836	35.8169
14.9899	1.59912	1.66836	35.303
15.0909	1.59912	1.66836	34.7449
15.1919	1.59912	1.66836	34.1325
15.2929	1.59912	1.66836	33.4532
15.3939	1.59912	1.66836	32.6911
15.4949	1.59912	1.66836	31.8261
15.596	1.59912	1.66836	30.8328
15.697	1.59912	1.66836	29.6779
15.798	1.59912	1.66836	28.3182
15.899	1.59912	1.66836	26.6907
16	1.59912	1.66836	-inf
6	1.61338	1.69934	57.3206
6.10101	1.61338	1.69934	57.2169
6.20202	1.61338	1.69934	57.1077
6.30303	1.61338	1.69934	56.9907
6.40404	1.61338	1.69934	56.8646
6.50505	1.61338	1.69934	56.7287
6.60606	1.61338	1.69934	56.5831
6.70707	1.61338	1.69934	56.4284
6.80808	1.61338	1.69934	56.2656
6.90909	1.61338	1.69934	56.0957
7.0101	1.61338	1.69934	55.9199
7.11111	1.61338	1.69934	55.7391
7.21212	1.61338	1.69934	55.5542
7.31313	1.61338	1.69934	55.3658
7.41414	1.61338	1.69934	55.1748
7.51515	1.61338	1.69934	54.9816
7.61616	1.61338	1.69934	54.7865
7.71717	1.61338	1.69934	54.5901
7.81818	1.61338	1.69934	54.3925
7.91919	1.61338	1.69934	54.1939
8.0202	1.61338	1.69934	53.9947
8.12121	1.61338	1.69934	53.7949
8.22222	1.61338	1.69934	53.5946
8.32323	1.61338	1.69934	53.3939
8.42424	1.61338	1.69934	53.1929
8.52525	1.61338	1.69934	52.9917
8.62626	1.61338	1.69934	52.7902
8.72727	1.61338	1.69934	52.5886
8.82828	1.61338	1.69934	52.3868
8.92929	1.61338	1.69934	52.1849
9.0303	1.61338	1.69934	51.9829
9.13131	1.61338	1.69934	51.7807
9.23232	1.61338	1.69934	51.5784
9.33333	1.61338	1.69934	51.3759
9.43434	1.61338	1.69934	51.1732
9.53535	1.61338	1.69934	50.9702
9.63636	1.61338	1.69934	50.767
9.73737	1.61338	1.69934	50.5635
9.83838	1.61338	1.69934	50.3595
9.93939	1.61338	1.69934	50.155
10.0404	1.61338	1.69934	49.9498
10.1414	1.61338	1.69934	49.7437
10.2424	1.61338	1.69934	49.5367
10.3434	1.61338	1.69934	49.3284
10.4444	1.61338	1.69934	49.1184
10.5455	1.61338	1.69934	48.9066
10.6465	1.61338	1.69934	48.6925
10.7475	1.61338	1.69934	48.4756
10.8485	1.61338	1.69934	48.2555
10.9495	1.61338	1.69934	48.0316
11.0505	1.61338	1.69934	47.8033
11.1515	1.61338	1.69934	47.5703
11.2525	1.61338	1.69934	47.3319
11.3535	1.61338	1.69934	47.0879
11.4545	1.61338	1.69934	46.838
11.5556	1.61338	1.69934	46.5821
11.6566	1.61338	1.69934	46.3203
11.7576	1.61338	1.69934	46.0529
11.8586	1.61338	1.69934	45.7801
11.9596	1.61338	1.69934	45.5023
12.0606	1.61338	1.69934	45.2201
12.1616	1.61338	1.69934	44.934
12.2626	1.61338	1.69934	44.6443
12.3636	1.61338	1.69934	44.3516
12.4646	1.61338	1.69934	44.0562
12.5657	1.61338	1.69934	43.7584
12.6667	1.61338	1.69934	43.4585
12.7677	1.61338	1.69934	43.1566
12.8687	1.61338	1.69934	42.8529
12.9697	1.61338	1.69934	42.5473
13.0707	1.61338	1.69934	42.2399
13.1717	1.61338	1.69934	41.9305
13.2727	1.61338	1.69934	41.619
13.3737	1.61338	1.69934	41.3052
13.4747	1.61338	1.69934	40.9888
13.5758	1.61338	1.69934	40.6693
13.6768	1.61338	1.69934	40.3464
13.7778	1.61338	1.69934	40.0193
13.8788	1.61338	1.69934	39.6874
13.9798	1.61338	1.69934	39.3498
14.0808	1.61338	1.69934	39.0054
14.1818	1.61338	1.69934	38.653
14.2828	1.61338	1.69934	38.2911
14.3838	1.61338	1.69934	37.9176
14.4848	1.61338	1.69934	37.5304
14.5859	1.61338	1.69934	37.1265
14.6869	1.61338	1.69934	36.7026
14.7879	1.61338	1.69934	36.2544
14.8889	1.61338	1.69934	35.7766
14.9899	1.61338	1.69934	35.2627
15.0909	1.61338	1.69934	34.7046
15.1919	1.61338	1.69934	34.0922
15.2929	1.61338	1.69934	33.4129
15.3939	1.61338	1.69934	32.6508
15.4949	1.61338	1.69934	31.7859
15.596	1.61338	1.69934	30.7926
15.697	1.61338	1.69934	29.6377
15.798	1.61338	1.69934	28.278
15.899	1.61338	1.69934	26.6505
16	1.61338	1.69934	-inf
6	1.62765	1.73535	57.2945
6.10101	1.62765	1.73535	57.1907
6.20202	1.62765	1.73535	57.0813
6.30303	1.62765	1.73535	56.9642
6.40404	1.62765	1.73535	56.838
6.50505	1.62765	1.73535	56.702
6.60606	1.62765	1.73535	56.5563
6.70707	1.62765	1.73535	56.4016
6.80808	1.62765	1.73535	56.2388
6.90909	1.62765	1.73535	56.0689
7.0101	1.62765	1.73535	55.893
7.11111	1.62765	1.73535	55.7122
7.21212	1.62765	1.73535	55.5273
7.31313	1.62765	1.73535	55.3389
7.41414	1.62765	1.73535	55.1479
7.51515	1.62765	1.73535	54.9546
7.61616	1.62765	1.73535	54.7596
7.71717	1.62765	1.73535	54.5631
7.81818	1.62765	1.73535	54.3655
7.91919	1.62765	1.73535	54.167
8.0202	1.62765	1.73535	53.9677
8.12121	1.62765	1.73535	53.7679
8.22222	1.62765	1.73535	53.5676
8.32323	1.62765	1.73535	53.3669
8.42424	1.62765	1.73535	53.1659
8.52525	1.62765	1.73535	52.9647
8.62626	1.62765	1.73535	52.7633
8.72727	1.62765	1.73535	52.5617
8.82828	1.62765	1.73535	52.3599
8.92929	1.62765	1.73535	52.158
9.0303	1.62765	1.73535	51.9559
9.13131	1.62765	1.73535	51.7537
9.23232	1.62765	1.73535	51.5514
9.33333	1.62765	1.73535	51.3488
9.43434	1.62765	1.73535	51.1461
9.53535	1.62765	1.73535	50.9432
9.63636	1.62765	1.73535	50.7399
9.73737	1.62765	1.73535	50.5363
9.83838	1.62765	1.73535	50.3323
9.93939	1.62765	1.73535	50.1277
10.0404	1.62765	1.73535	49.9225
10.1414	1.62765	1.73535	49.7163
10.2424	1.62765	1.73535	49.5092
10.3434	1.62765	1.73535	49.3007
10.4444	1.62765	1.73535	49.0906
10.5455	1.62765	1.73535	48.8786
10.6465	1.62765	1.73535	48.6643
10.7475	1.62765	1.73535	48.4471
10.8485	1.62765	1.73535	48.2267
10.9495	1.62765	1.73535	48.0024
11.0505	1.62765	1.73535	47.7738
11.1515	1.62765	1.73535	47.5403
11.2525	1.62765	1.73535	47.3014
11.3535	1.62765	1.73535	47.0569
11.4545	1.62765	1.73535	46.8065
11.5556	1.62765	1.73535	46.5501
11.6566	1.62765	1.73535	46.2879
11.7576	1.62765	1.73535	46.02
11.8586	1.62765	1.73535	45.7467
11.9596	1.62765	1.73535	45.4686
12.0606	1.62765	1.73535	45.1861
12.1616	1.62765	1.73535	44.8997
12.2626	1.62765	1.73535	44.6098
12.3636	1.62765	1.73535	44.3169
12.4646	1.62765	1.73535	44.0213
12.5657	1.62765	1.73535	43.7234
12.6667	1.62765	1.73535	43.4233
12.7677	1.62765	1.73535	43.1213
12.8687	1.62765	1.73535	42.8175
12.9697	1.62765	1.73535	42.5119
13.0707	1.62765	1.73535	42.2044
13.1717	1.62765	1.73535	41.895
13.2727	1.62765	1.73535	41.5835
13.3737	1.62765	1.73535	41.2697
13.4747	1.62765	1.73535	40.9532
13.5758	1.62765	1.73535	40.6337
13.6768	1.62765	1.73535	40.3107
13.7778	1.62765	1.73535	39.9837
13.8788	1.62765	1.73535	39.6517
13.9798	1.62765	1.73535	39.3141
14.0808	1.62765	1.73535	38.9698
14.1818	1.62765	1.73535	38.6174
14.2828	1.62765	1.73535	38.2554
14.3838	1.62765	1.73535	37.8819
14.4848	1.62765	1.73535	37.4947
14.5859	1.62765	1.73535	37.0909
14.6869	1.62765	1.73535	36.667
14.7879	1.62765	1.73535	36.2188
14.8889	1.62765	1.73535	35.741
14.9899	1.62765	1.73535	35.2271
15.0909	1.62765	1.73535	34.669
15.1919	1.62765	1.73535	34.0566
15.2929	1.62765	1.73535	33.3773
15.3939	1.62765	1.73535	32.6152
15.4949	1.62765	1.73535	31.7502
15.596	1.62765	1.73535	30.7569
15.697	1.62765	1.73535	29.602
15.798	1.62765	1.73535	28.2423
15.899	1.62765	1.73535	26.6148
16	1.62765	1.73535	-inf
6	1.64191	1.76794	57.2633
6.10101	1.64191	1.76794	57.1594
6.20202	1.64191	1.76794	57.0499
6.30303	1.64191	1.76794	56.9327
6.40404	1.64191	1.76794	56.8064
6.50505	1.64191	1.76794	56.6703
6.60606	1.64191	1.76794	56.5246
6.70707	1.64191	1.76794	56.3698
6.80808	1.64191	1.76794	56.2069
6.90909	1.64191	1.76794	56.037
7.0101	1.64191	1.76794	55.8611
7.11111	1.64191	1.76794	55.6803
7.21212	1.64191	1.76794	55.4953
7.31313	1.64191	1.76794	55.307
7.41414	1.64191	1.76794	55.1159
7.51515	1.64191	1.76794	54.9227
7.61616	1.64191	1.76794	54.7276
7.71717	1.64191	1.76794	54.5311
7.81818	1.64191	1.76794	54.3335
7.91919	1.64191	1.76794	54.135
8.0202	1.64191	1.76794	53.9358
8.12121	1.64191	1.76794	53.7359
8.22222	1.64191	1.76794	53.5356
8.32323	1.64191	1.76794	53.3349
8.42424	1.64191	1.76794	53.1339
8.52525	1.64191	1.76794	52.9327
8.62626	1.64191	1.76794	52.7313
8.72727	1.64191	1.76794	52.5296
8.82828	1.64191	1.76794	52.3279
8.92929	1.64191	1.76794	52.1259
9.0303	1.64191	1.76794	51.9239
9.13131	1.64191	1.76794	51.7217
9.23232	1.64191	1.76794	51.5193
9.33333	1.64191	1.76794	51.3168
9.43434	1.64191	1.76794	51.114
9.53535	1.64191	1.76794	50.9111
9.63636	1.64191	1.76794	50.7078
9.73737	1.64191	1.76794	50.5042
9.83838	1.64191	1.76794	50.3001
9.93939	1.64191	1.76794	50.0954
10.0404	1.64191	1.76794	49.8901
10.1414	1.64191	1.76794	49.6839
10.2424	1.64191	1.76794	49.4766
10.3434	1.64191	1.76794	49.268
10.4444	1.64191	1.76794	49.0578
10.5455	1.64191	1.76794	48.8456
10.6465	1.64191	1.76794	48.6311
10.7475	1.64191	1.76794	48.4137
10.8485	1.64191	1.76794	48.1929
10.9495	1.64191	1.76794	47.9683
11.0505	1.64191	1.76794	47.7393
11.1515	1.64191	1.76794	47.5054
11.2525	1.64191	1.76794	47.2661
11.3535	1.64191	1.76794	47.0211
11.4545	1.64191	1.76794	46.7703
11.5556	1.64191	1.76794	46.5134
11.6566	1.64191	1.76794	46.2507
11.7576	1.64191	1.76794	45.9824
11.8586	1.64191	1.76794	45.7088
11.9596	1.64191	1.76794	45.4303
12.0606	1.64191	1.76794	45.1475
12.1616	1.64191	1.76794	44.8608
12.2626	1.64191	1.76794	44.5706
12.3636	1.64191	1.76794	44.2775
12.4646	1.64191	1.76794	43.9818
12.5657	1.64191	1.76794	43.6838
12.6667	1.64191	1.76794	43.3836
12.7677	1.64191	1.76794	43.0815
12.8687	1.64191	1.76794	42.7776
12.9697	1.64191	1.76794	42.4719
13.0707	1.64191	1.76794	42.1644
13.1717	1.64191	1.76794	41.855
13.2727	1.64191	1.76794	41.5434
13.3737	1.64191	1.76794	41.2296
13.4747	1.64191	1.76794	40.9131
13.5758	1.64191	1.76794	40.5936
13.6768	1.64191	1.76794	40.2706
13.7778	1.64191	1.76794	39.9435
13.8788	1.64191	1.76794	39.6116
13.9798	1.64191	1.76794	39.274
14.0808	1.64191	1.76794	38.9296
14.1818	1.64191	1.76794	38.5772
14.2828	1.64191	1.76794	38.2153
14.3838	1.64191	1.76794	37.8418
14.4848	1.64191	1.76794	37.4546
14.5859	1.64191	1.76794	37.0507
14.6869	1.64191	1.76794	36.6268
14.7879	1.64191	1.76794	36.1786
14.8889	1.64191	1.76794	35.7008
14.9899	1.64191	1.76794	35.1869
15.0909	1.64191	1.76794	34.6288
15.1919	1.64191	1.76794	34.0164
15.2929	1.64191	1.76794	33.3371
15.3939	1.64191	1.76794	32.575
15.4949	1.64191	1.76794	31.7101
15.596	1.64191	1.76794	30.7167
15.697	1.64191	1.76794	29.5618
15.798	1.64191	1.76794	28.2022
15.899	1.64191	1.76794	26.5746
16	1.64191	1.76794	-inf
6	1.65618	1.80561	57.2372
6.10101	1.65618	1.80561	57.1331
6.20202	1.65618	1.80561	57.0235
6.30303	1.65618	1.80561	56.9063
6.40404	1.65618	1.80561	56.7799
6.50505	1.65618	1.80561	56.6437
6.60606	1.65618	1.80561	56.4979
6.70707	1.65618	1.80561	56.3431
6.80808	1.65618	1.80561	56.1802
6.90909	1.65618	1.80561	56.0102
7.0101	1.65618	1.80561	55.8344
7.11111	1.65618	1.80561	55.6535
7.21212	1.65618	1.80561	55.4685
7.31313	1.65618	1.80561	55.2802
7.41414	1.65618	1.80561	55.0891
7.51515	1.65618	1.80561	54.8958
7.61616	1.65618	1.80561	54.7008
7.71717	1.65618	1.80561	54.5043
7.81818	1.65618	1.80561	54.3067
7.91919	1.65618	1.80561	54.1082
8.0202	1.65618	1.80561	53.9089
8.12121	1.65618	1.80561	53.7091
8.22222	1.65618	1.80561	53.5088
8.32323	1.65618	1.80561	53.3081
8.42424	1.65618	1.80561	53.1071
8.52525	1.65618	1.80561	52.9058
8.62626	1.65618	1.80561	52.7044
8.72727	1.65618	1.80561	52.5028
8.82828	1.65618	1.80561	52.301
8.92929	1.65618	1.80561	52.099
9.0303	1.65618	1.80561	51.897
9.13131	1.65618	1.80561	51.6948
9.23232	1.65618	1.80561	51.4924
9.33333	1.65618	1.80561	51.2898
9.43434	1.65618	1.80561	51.0871
9.53535	1.65618	1.80561	50.8841
9.63636	1.65618	1.80561	50.6808
9.73737	1.65618	1.80561	50.4771
9.83838	1.65618	1.80561	50.273
9.93939	1.65618	1.80561	50.0683
10.0404	1.65618	1.80561	49.8629
10.1414	1.65618	1.80561	49.6566
10.2424	1.65618	1.80561	49.4492
10.3434	1.65618	1.80561	49.2405
10.4444	1.65618	1.80561	49.0301
10.5455	1.65618	1.80561	48.8177
10.6465	1.65618	1.80561	48.6029
10.7475	1.65618	1.80561	48.3852
10.8485	1.65618	1.80561	48.1641
10.9495	1.65618	1.80561	47.9392
11.0505	1.65618	1.80561	47.7097
11.1515	1.65618	1.80561	47.4754
11.2525	1.65618	1.80561	47.2356
11.3535	1.65618	1.80561	46.9901
11.4545	1.65618	1.80561	46.7388
11.5556	1.65618	1.80561	46.4814
11.6566	1.65618	1.80561	46.2182
11.7576	1.65618	1.80561	45.9494
11.8586	1.65618	1.80561	45.6754
11.9596	1.65618	1.80561	45.3966
12.0606	1.65618	1.80561	45.1134
12.1616	1.65618	1.80561	44.8264
12.2626	1.65618	1.80561	44.5361
12.3636	1.65618	1.80561	44.2428
12.4646	1.65618	1.80561	43.9468
12.5657	1.65618	1.80561	43.6487
12.6667	1.65618	1.80561	43.3484
12.7677	1.65618	1.80561	43.0462
12.8687	1.65618	1.80561	42.7423
12.9697	1.65618	1.80561	42.4365
13.0707	1.65618	1.80561	42.1289
13.1717	1.65618	1.80561	41.8194
13.2727	1.65618	1.80561	41.5079
13.3737	1.65618	1.80561	41.194
13.4747	1.65618	1.80561	40.8775
13.5758	1.65618	1.80561	40.558
13.6768	1.65618	1.80561	40.235
13.7778	1.65618	1.80561	39.9079
13.8788	1.65618	1.80561	39.576
13.9798	1.65618	1.80561	39.2383
14.0808	1.65618	1.80561	38.894
14.1818	1.65618	1.80561	38.5416
14.2828	1.65618	1.80561	38.1796
14.3838	1.65618	1.80561	37.8061
14.4848	1.65618	1.80561	37.4189
14.5859	1.65618	1.80561	37.015
14.6869	1.65618	1.80561	36.5911
14.7879	1.65618	1.80561	36.1429
14.8889	1.65618	1.80561	35.6651
14.9899	1.65618	1.80561	35.1512
15.0909	1.65618	1.80561	34.5931
15.1919	1.65618	1.80561	33.9807
15.2929	1.65618	1.80561	33.3014
15.3939	1.65618	1.80561	32.5393
15.4949	1.65618	1.80561	31.6744
15.596	1.65618	1.80561	30.681
15.697	1.65618	1.80561	29.5262
15.798	1.65618	1.80561	28.1665
15.899	1.65618	1.80561	26.539
16	1.65618	1.80561	-inf
6	1.67044	1.83995	57.2061
6.10101	1.67044	1.83995	57.1019
6.20202	1.67044	1.83995	56.9922
6.30303	1.67044	1.83995	56.8748
6.40404	1.67044	1.83995	56.7483
6.50505	1.67044	1.83995	56.6121
6.60606	1.67044	1.83995	56.4662
6.70707	1.67044	1.83995	56.3114
6.80808	1.67044	1.83995	56.1484
6.90909	1.67044	1.83995	55.9785
7.0101	1.67044	1.83995	55.8026
7.11111	1.67044	1.83995	55.6217
7.21212	1.67044	1.83995	55.4367
7.31313	1.67044	1.83995	55.2483
7.41414	1.67044	1.83995	55.0573
7.51515	1.67044	1.83995	54.864
7.61616	1.67044	1.83995	54.6689
7.71717	1.67044	1.83995	54.4724
7.81818	1.67044	1.83995	54.2748
7.91919	1.67044	1.83995	54.0763
8.0202	1.67044	1.83995	53.877
8.12121	1.67044	1.83995	53.6772
8.22222	1.67044	1.83995	53.4769
8.32323	1.67044	1.83995	53.2762
8.42424	1.67044	1.83995	53.0752
8.52525	1.67044	1.83995	52.874
8.62626	1.67044	1.83995	52.6725
8.72727	1.67044	1.83995	52.4709
8.82828	1.67044	1.83995	52.2691
8.92929	1.67044	1.83995	52.0671
9.0303	1.67044	1.83995	51.8651
9.13131	1.67044	1.83995	51.6628
9.23232	1.67044	1.83995	51.4604
9.33333	1.67044	1.83995	51.2579
9.43434	1.67044	1.83995	51.0551
9.53535	1.67044	1.83995	50.8521
9.63636	1.67044	1.83995	50.6488
9.73737	1.67044	1.83995	50.445
9.83838	1.67044	1.83995	50.2409
9.93939	1.67044	1.83995	50.0361
10.0404	1.67044	1.83995	49.8306
10.1414	1.67044	1.83995	49.6242
10.2424	1.67044	1.83995	49.4167
10.3434	1.67044	1.83995	49.2079
10.4444	1.67044	1.83995	48.9973
10.5455	1.67044	1.83995	48.7848
10.6465	1.67044	1.83995	48.5697
10.7475	1.67044	1.83995	48.3518
10.8485	1.67044	1.83995	48.1304
10.9495	1.67044	1.83995	47.9051
11.0505	1.67044	1.83995	47.6753
11.1515	1.67044	1.83995	47.4405
11.2525	1.67044	1.83995	47.2003
11.3535	1.67044	1.83995	46.9543
11.4545	1.67044	1.83995	46.7025
11.5556	1.67044	1.83995	46.4447
11.6566	1.67044	1.83995	46.181
11.7576	1.67044	1.83995	45.9118
11.8586	1.67044	1.83995	45.6374
11.9596	1.67044	1.83995	45.3582
12.0606	1.67044	1.83995	45.0747
12.1616	1.67044	1.83995	44.7875
12.2626	1.67044	1.83995	44.4969
12.3636	1.67044	1.83995	44.2034
12.4646	1.67044	1.83995	43.9074
12.5657	1.67044	1.83995	43.609
12.6667	1.67044	1.83995	43.3087
12.7677	1.67044	1.83995	43.0064
12.8687	1.67044	1.83995	42.7024
12.9697	1.67044	1.83995	42.3966
13.0707	1.67044	1.83995	42.0889
13.1717	1.67044	1.83995	41.7794
13.2727	1.67044	1.83995	41.4678
13.3737	1.67044	1.83995	41.1539
13.4747	1.67044	1.83995	40.8374
13.5758	1.67044	1.83995	40.5179
13.6768	1.67044	1.83995	40.1949
13.7778	1.67044	1.83995	39.8678
13.8788	1.67044	1.83995	39.5358
13.9798	1.67044	1.83995	39.1982
14.0808	1.67044	1.83995	38.8538
14.1818	1.67044	1.83995	38.5014
14.2828	1.67044	1.83995	38.1394
14.3838	1.67044	1.83995	37.766
14.4848	1.67044	1.83995	37.3787
14.5859	1.67044	1.83995	36.9749
14.6869	1.67044	1.83995	36.551
14.7879	1.67044	1.83995	36.1028
14.8889	1.67044	1.83995	35.625
14.9899	1.67044	1.83995	35.1111
15.0909	1.67044	1.83995	34.553
15.1919	1.67044	1.83995	33.9406
15.2929	1.67044	1.83995	33.2613
15.3939	1.67044	1.83995	32.4992
15.4949	1.67044	1.83995	31.6342
15.596	1.67044	1.83995	30.6409
15.697	1.67044	1.83995	29.486
15.798	1.67044	1.83995	28.1263
15.899	1.67044	1.83995	26.4988
16	1.67044	1.83995	-inf
6	1.68471	1.87943	57.1799
6.10101	1.68471	1.87943	57.0756
6.20202	1.68471	1.87943	56.9658
6.30303	1.68471	1.87943	56.8483
6.40404	1.68471	1.87943	56.7218
6.50505	1.68471	1.87943	56.5855
6.60606	1.68471	1.87943	56.4396
6.70707	1.68471	1.87943	56.2847
6.80808	1.68471	1.87943	56.1217
6.90909	1.68471	1.87943	55.9517
7.0101	1.68471	1.87943	55.7758
7.11111	1.68471	1.87943	55.5949
7.21212	1.68471	1.87943	55.4099
7.31313	1.68471	1.87943	55.2215
7.41414	1.68471	1.87943	55.0305
7.51515	1.68471	1.87943	54.8372
7.61616	1.68471	1.87943	54.6421
7.71717	1.68471	1.87943	54.4456
7.81818	1.68471	1.87943	54.248
7.91919	1.68471	1.87943	54.0495
8.0202	1.68471	1.87943	53.8502
8.12121	1.68471	1.87943	53.6504
8.22222	1.68471	1.87943	53.45
8.32323	1.68471	1.87943	53.2494
8.42424	1.68471	1.87943	53.0484
8.52525	1.68471	1.87943	52.8471
8.62626	1.68471	1.87943	52.6457
8.72727	1.68471	1.87943	52.444
8.82828	1.68471	1.87943	52.2422
8.92929	1.68471	1.87943	52.0403
9.0303	1.68471	1.87943	51.8382
9.13131	1.68471	1.87943	51.6359
9.23232	1.68471	1.87943	51.4335
9.33333	1.68471	1.87943	51.231
9.43434	1.68471	1.87943	51.0282
9.53535	1.68471	1.87943	50.8251
9.63636	1.68471	1.87943	50.6218
9.73737	1.68471	1.87943	50.418
9.83838	1.68471	1.87943	50.2138
9.93939	1.68471	1.87943	50.009
10.0404	1.68471	1.87943	49.8034
10.1414	1.68471	1.87943	49.5969
10.2424	1.68471	1.87943	49.3893
10.3434	1.68471	1.87943	49.1803
10.4444	1.68471	1.87943	48.9696
10.5455	1.68471	1.87943	48.7568
10.6465	1.68471	1.87943	48.5415
10.7475	1.68471	1.87943	48.3233
10.8485	1.68471	1.87943	48.1016
10.9495	1.68471	1.87943	47.8759
11.0505	1.68471	1.87943	47.6456
11.1515	1.68471	1.87943	47.4104
11.2525	1.68471	1.87943	47.1697
11.3535	1.68471	1.87943	46.9233
11.4545	1.68471	1.87943	46.6709
11.5556	1.68471	1.87943	46.4126
11.6566	1.68471	1.87943	46.1484
11.7576	1.68471	1.87943	45.8788
11.8586	1.68471	1.87943	45.6039
11.9596	1.68471	1.87943	45.3244
12.0606	1.68471	1.87943	45.0406
12.1616	1.68471	1.87943	44.753
12.2626	1.68471	1.87943	44.4622
12.3636	1.68471	1.87943	44.1685
12.4646	1.68471	1.87943	43.8723
12.5657	1.68471	1.87943	43.5738
12.6667	1.68471	1.87943	43.2733
12.7677	1.68471	1.87943	42.971
12.8687	1.68471	1.87943	42.6669
12.9697	1.68471	1.87943	42.361
13.0707	1.68471	1.87943	42.0534
13.1717	1.68471	1.87943	41.7438
13.2727	1.68471	1.87943	41.4322
13.3737	1.68471	1.87943	41.1183
13.4747	1.68471	1.87943	40.8017
13.5758	1.68471	1.87943	40.4822
13.6768	1.68471	1.87943	40.1591
13.7778	1.68471	1.87943	39.832
13.8788	1.68471	1.87943	39.5001
13.9798	1.68471	1.87943	39.1625
14.0808	1.68471	1.87943	38.8181
14.1818	1.68471	1.87943	38.4657
14.2828	1.68471	1.87943	38.1037
14.3838	1.68471	1.87943	37.7302
14.4848	1.68471	1.87943	37.343
14.5859	1.68471	1.87943	36.9391
14.6869	1.68471	1.87943	36.5152
14.7879	1.68471	1.87943	36.067
14.8889	1.68471	1.87943	35.5892
14.9899	1.68471	1.87943	35.0753
15.0909	1.68471	1.87943	34.5172
15.1919	1.68471	1.87943	33.9048
15.2929	1.68471	1.87943	33.2255
15.3939	1.68471	1.87943	32.4634
15.4949	1.68471	1.87943	31.5985
15.596	1.68471	1.87943	30.6051
15.697	1.68471	1.87943	29.4502
15.798	1.68471	1.87943	28.0905
15.899	1.68471	1.87943	26.463
16	1.68471	1.87943	-inf
6	1.69897	1.91566	-inf
6.10101	1.69897	1.91566	-inf
6.20202	1.69897	1.91566	-inf
6.30303	1.69897	1.91566	-inf
6.40404	1.69897	1.91566	-inf
6.50505	1.69897	1.91566	-inf
6.60606	1.69897	1.91566	-inf
6.70707	1.69897	1.91566	-inf
6.80808	1.69897	1.91566	-inf
6.90909	1.69897	1.91566	-inf
7.0101	1.69897	1.91566	-inf
7.11111	1.69897	1.91566	-inf
7.21212	1.69897	1.91566	-inf
7.31313	1.69897	1.91566	-inf
7.41414	1.69897	1.91566	-inf
7.51515	1.69897	1.91566	-inf
7.61616	1.69897	1.91566	-inf
7.71717	1.69897	1.91566	-inf
7.81818	1.69897	1.91566	-inf
7.91919	1.69897	1.91566	-inf
8.0202	1.69897	1.91566	-inf
8.12121	1.69897	1.91566	-inf
8.22222	1.69897	1.91566	-inf
8.32323	1.69897	1.91566	-inf
8.42424	1.69897	1.91566	-inf
8.52525	1.69897	1.91566	-inf
8.62626	1.69897	1.91566	-inf
8.72727	1.69897	1.91566	-inf
8.82828	1.69897	1.91566	-inf
8.92929	1.69897	1.91566	-inf
9.0303	1.69897	1.91566	-inf
9.13131	1.69897	1.91566	-inf
9.23232	1.69897	1.91566	-inf
9.33333	1.69897	1.91566	-inf
9.43434	1.69897	1.91566	-inf
9.53535	1.69897	1.91566	-inf
9.63636	1.69897	1.91566	-inf
9.73737	1.69897	1.91566	-inf
9.83838	1.69897	1.91566	-inf
9.93939	1.69897	1.91566	-inf
10.0404	1.69897	1.91566	-inf
10.1414	1.69897	1.91566	-inf
10.2424	1.69897	1.91566	-inf
10.3434	1.69897	1.91566	-inf
10.4444	1.69897	1.91566	-inf
10.5455	1.69897	1.91566	-inf
10.6465	1.69897	1.91566	-inf
10.7475	1.69897	1.91566	-inf
10.8485	1.69897	1.91566	-inf
10.9495	1.69897	1.91566	-inf
11.0505	1.69897	1.91566	-inf
11.1515	1.69897	1.91566	-inf
11.2525	1.69897	1.91566	-inf
11.3535	1.69897	1.91566	-inf
11.4545	1.69897	1.91566	-inf
11.5556	1.69897	1.91566	-inf
11.6566	1.69897	1.91566	-inf
11.7576	1.69897	1.91566	-inf
11.8586	1.69897	1.91566	-inf
11.9596	1.69897	1.91566	-inf
12.0606	1.69897	1.91566	-inf
12.1616	1.69897	1.91566	-inf
12.2626	1.69897	1.91566	-inf
12.3636	1.69897	1.91566	-inf
12.4646	1.69897	1.91566	-inf
12.5657	1.69897	1.91566	-inf
12.6667	1.69897	1.91566	-inf
12.7677	1.69897	1.91566	-inf
12.8687	1.69897	1.91566	-inf
12.9697	1.69897	1.91566	-inf
13.0707	1.69897	1.91566	-inf
13.1717	1.69897	1.91566	-inf
13.2727	1.69897	1.91566	-inf
13.3737	1.69897	1.91566	-inf
13.4747	1.69897	1.91566	-inf
13.5758	1.69897	1.91566	-inf
13.6768	1.69897	1.91566	-inf
13.7778	1.69897	1.91566	-inf
13.8788	1.69897	1.91566	-inf
13.9798	1.69897	1.91566	-inf
14.0808	1.69897	1.91566	-inf
14.1818	1.69897	1.91566	-inf
14.2828	1.69897	1.91566	-inf
14.3838	1.69897	1.91566	-inf
14.4848	1.69897	1.91566	-inf
14.5859	1.69897	1.91566	-inf
14.6869	1.69897	1.91566	-inf
14.7879	1.69897	1.91566	-inf
14.8889	1.69897	1.91566	-inf
14.9899	1.69897	1.91566	-inf
15.0909	1.69897	1.91566	-inf
15.1919	1.69897	1.91566	-inf
15.2929	1.69897	1.91566	-inf
15.3939	1.69897	1.91566	-inf
15.4949	1.69897	1.91566	-inf
15.596	1.69897	1.91566	-inf
15.697	1.69897	1.91566	-inf
15.798	1.69897	1.91566	-inf
15.899	1.69897	1.91566	-inf
16	1.69897	1.91566	-inf
