log(E/eV)	Synchr	IC	IC - IR	SSC
-5.94432	38.1357	13.4097	20.2208	0	38.1357
-5.7019	38.2636	14.137	20.9481	27.862	38.2636
-5.45947	38.3809	14.8643	21.6754	28.4735	38.3809
-5.21705	38.4951	15.5915	22.4026	28.9659	38.4951
-4.97462	38.6232	16.3188	23.1299	29.4101	38.6232
-4.7322	38.7484	17.0461	23.8571	29.8121	38.7484
-4.48977	38.8654	17.7733	24.5844	30.1807	38.8654
-4.24735	38.9911	18.5006	25.3115	30.4718	38.9911
-4.00493	39.117	19.2279	26.0387	30.7481	39.117
-3.7625	39.2299	19.9552	26.7657	31.0096	39.2299
-3.52008	39.3475	20.6824	27.4925	31.2552	39.3475
-3.27765	39.4746	21.4097	28.2189	31.4677	39.4746
-3.03523	39.5914	22.137	28.9448	31.6781	39.5914
-2.79281	39.7074	22.8642	29.6695	31.8991	39.7074
-2.55038	39.8354	23.5915	30.3924	32.0747	39.8354
-2.30796	39.9551	24.3187	31.1121	32.2663	39.9551
-2.06553	40.065	25.0459	31.8261	32.4533	40.065
-1.82311	40.1839	25.773	32.5303	32.6263	40.1839
-1.58068	40.3005	26.5	33.218	32.7965	40.3005
-1.33826	40.4028	27.2268	33.8787	32.9624	40.4028
-1.09584	40.5105	27.9532	34.497	33.1247	40.5105
-0.853411	40.625	28.679	35.0513	33.2787	40.625
-0.610987	40.7239	29.4038	35.5135	33.4384	40.7239
-0.368563	40.8174	30.1266	35.8661	33.6021	40.8174
-0.126139	40.9172	30.8462	36.1419	33.7482	40.9172
0.116286	40.9986	31.56	36.389	33.8983	40.9987
0.35871	41.0618	32.2639	36.6164	34.0523	41.0618
0.601134	41.1339	32.9511	36.8249	34.1969	41.1339
0.843558	41.2002	33.611	37.0161	34.3393	41.2002
1.08598	41.2417	34.2281	37.1919	34.4835	41.2418
1.32841	41.2871	34.7806	37.3559	34.627	41.2872
1.57083	41.3422	35.2403	37.5121	34.7647	41.3422
1.81326	41.369	35.5904	37.6633	34.8997	41.3691
2.05568	41.3818	35.8651	37.809	35.0392	41.382
2.2981	41.4129	36.1117	37.9485	35.1752	41.413
2.54053	41.4271	36.3387	38.0824	35.3076	41.4273
2.78295	41.4164	36.5468	38.2114	35.4473	41.4167
3.02538	41.4279	36.7375	38.3363	35.5726	41.4282
3.2678	41.4495	36.9131	38.4589	35.7084	41.45
3.51023	41.4478	37.0768	38.5824	35.8417	41.4484
3.75265	41.4525	37.2329	38.7093	35.9559	41.4533
3.99507	41.4714	37.384	38.8374	36.0983	41.4725
4.2375	41.4604	37.5295	38.9636	36.2355	41.4619
4.47992	41.4376	37.6689	39.0873	36.3442	41.4396
4.72235	41.4442	37.8027	39.2085	36.472	41.4468
4.96477	41.4388	37.9316	39.3272	36.6034	41.4423
5.20719	41.4131	38.0564	39.4447	36.7224	41.418
5.44962	41.4151	38.179	39.5635	36.8459	41.4214
5.69204	41.4188	38.3025	39.6865	36.969	41.4271
5.93447	41.3864	38.4295	39.8125	37.0882	41.3983
6.17689	41.3586	38.5494	39.9267	37.2169	41.3751
6.41932	41.3465	38.681	40.0589	37.3286	41.3693
6.66174	41.2967	38.803	40.1669	37.4492	41.3291
6.90416	41.2296	38.9118	40.2973	37.5657	41.2795
7.14659	41.1968	39.0377	40.4087	37.6771	41.265
7.38901	41.1459	39.166	40.5361	37.7631	41.245
7.63144	41.057	39.2856	40.6438	37.9064	41.2043
7.87386	40.9802	39.402	40.775	38.0045	41.1979
8.11629	40.8794	39.5192	40.8831	38.1074	41.192
8.35871	40.6686	39.6386	41.0075	38.2095	41.1844
8.60113	40.3432	39.7593	41.1251	38.3078	41.2078
8.84356	39.968	39.8798	41.2383	38.4029	41.2793
9.08598	39.4867	39.9991	41.3531	38.4978	41.3781
9.32841	38.788	40.1166	41.4667	38.5906	41.4871
9.57083	37.4285	40.2368	41.5761	38.6662	41.596
9.81326	34.8153	40.3561	41.6824	38.7419	41.7029
10.0557	30.0071	40.4698	41.7841	38.8095	41.8051
10.2981	21.363	40.5289	41.8797	38.8759	41.8991
10.5405	6.01559	40.4493	41.9681	38.937	41.9814
10.783	-21.0461	40.2314	42.0499	38.9699	42.0568
11.0254	-68.5788	39.9043	42.1228	38.983	42.1257
11.2678	-151.885	39.4957	42.1885	39.0164	42.1896
11.5102	0	39.0299	42.246	38.9776	42.2465
11.7526	0	38.5137	42.2919	38.9615	42.2921
11.9951	0	37.9406	42.3315	38.8706	42.3317
12.2375	0	37.318	42.3504	38.8122	42.3506
12.4799	0	36.6562	42.2672	38.7524	42.2674
12.7223	0	35.9582	41.9958	38.6019	41.9959
12.9648	0	35.2573	41.5684	38.5596	41.5688
13.2072	0	34.5372	41.0249	38.402	41.0259
13.4496	0	33.8071	40.4095	38.259	40.4125
13.692	0	33.0625	39.7401	38.1756	39.7517
13.9345	0	32.3144	39.0412	37.9927	39.0784
14.1769	0	31.5609	38.3198	37.9154	38.4641
14.4193	0	30.8006	37.5799	37.6595	37.9226
14.6617	0	30.0201	36.8123	37.3181	37.4361
14.9042	0	29.2109	36.011	37.1434	37.1743
15.1466	0	28.3639	35.1686	36.7369	36.7485
15.389	0	27.4666	34.2741	36.3959	36.3992
15.6314	0	26.4975	33.3065	35.8237	35.825
15.8739	0	25.3825	32.1923	0	32.1923
16.1163	0	0	0	0	0
16.3587	0	0	0	0	0
16.6011	0	0	0	0	0
16.8436	0	0	0	0	0
17.086	0	0	0	0	0
17.3284	0	0	0	0	0
17.5708	0	0	0	0	0
17.8133	0	0	0	0	0
18.0557	0	0	0	0	0
