log(E / eV)	log(z / pc)	t / yr	 logQ
6	1	0	56.9631
6.10101	1	0	57.1962
6.20202	1	0	57.3392
6.30303	1	0	57.4108
6.40404	1	0	57.4258
6.50505	1	0	57.396
6.60606	1	0	57.3305
6.70707	1	0	57.2367
6.80808	1	0	57.1206
6.90909	1	0	56.9866
7.0101	1	0	56.8385
7.11111	1	0	56.6793
7.21212	1	0	56.5112
7.31313	1	0	56.336
7.41414	1	0	56.1553
7.51515	1	0	55.9702
7.61616	1	0	55.7816
7.71717	1	0	55.5901
7.81818	1	0	55.3965
7.91919	1	0	55.2012
8.0202	1	0	55.0044
8.12121	1	0	54.8066
8.22222	1	0	54.6079
8.32323	1	0	54.4085
8.42424	1	0	54.2086
8.52525	1	0	54.0082
8.62626	1	0	53.8075
8.72727	1	0	53.6065
8.82828	1	0	53.4053
8.92929	1	0	53.2039
9.0303	1	0	53.0024
9.13131	1	0	52.8008
9.23232	1	0	52.5991
9.33333	1	0	52.3973
9.43434	1	0	52.1955
9.53535	1	0	51.9937
9.63636	1	0	51.7918
9.73737	1	0	51.5899
9.83838	1	0	51.3879
9.93939	1	0	51.186
10.0404	1	0	50.984
10.1414	1	0	50.782
10.2424	1	0	50.58
10.3434	1	0	50.378
10.4444	1	0	50.176
10.5455	1	0	49.974
10.6465	1	0	49.772
10.7475	1	0	49.57
10.8485	1	0	49.3679
10.9495	1	0	49.1659
11.0505	1	0	48.9639
11.1515	1	0	48.7618
11.2525	1	0	48.5598
11.3535	1	0	48.3577
11.4545	1	0	48.1556
11.5556	1	0	47.9536
11.6566	1	0	47.7514
11.7576	1	0	47.5493
11.8586	1	0	47.3469
11.9596	1	0	47.1438
12.0606	1	0	46.939
12.1616	1	0	46.7309
12.2626	1	0	46.5175
12.3636	1	0	46.2968
12.4646	1	0	46.0674
12.5657	1	0	45.8283
12.6667	1	0	45.5795
12.7677	1	0	45.3211
12.8687	1	0	45.0539
12.9697	1	0	44.7786
13.0707	1	0	44.496
13.1717	1	0	44.2068
13.2727	1	0	43.9117
13.3737	1	0	43.611
13.4747	1	0	43.305
13.5758	1	0	42.9938
13.6768	1	0	42.6775
13.7778	1	0	42.3556
13.8788	1	0	42.0278
13.9798	1	0	41.6934
14.0808	1	0	41.3516
14.1818	1	0	41.0011
14.2828	1	0	40.6407
14.3838	1	0	40.2684
14.4848	1	0	39.8821
14.5859	1	0	39.4789
14.6869	1	0	39.0555
14.7879	1	0	38.6077
14.8889	1	0	38.1302
14.9899	1	0	37.6166
15.0909	1	0	37.0586
15.1919	1	0	36.4464
15.2929	1	0	35.7671
15.3939	1	0	35.0051
15.4949	1	0	34.1402
15.596	1	0	33.1469
15.697	1	0	31.992
15.798	1	0	30.6324
15.899	1	0	29.0049
16	1	0	-inf
6	1.01426	0.417369	57.4411
6.10101	1.01426	0.417369	57.6148
6.20202	1.01426	0.417369	57.7159
6.30303	1.01426	0.417369	57.7574
6.40404	1.01426	0.417369	57.7504
6.50505	1.01426	0.417369	57.7041
6.60606	1.01426	0.417369	57.6263
6.70707	1.01426	0.417369	57.5232
6.80808	1.01426	0.417369	57.3999
6.90909	1.01426	0.417369	57.2604
7.0101	1.01426	0.417369	57.108
7.11111	1.01426	0.417369	56.9455
7.21212	1.01426	0.417369	56.7747
7.31313	1.01426	0.417369	56.5975
7.41414	1.01426	0.417369	56.4152
7.51515	1.01426	0.417369	56.2288
7.61616	1.01426	0.417369	56.0392
7.71717	1.01426	0.417369	55.847
7.81818	1.01426	0.417369	55.6527
7.91919	1.01426	0.417369	55.4569
8.0202	1.01426	0.417369	55.2598
8.12121	1.01426	0.417369	55.0616
8.22222	1.01426	0.417369	54.8627
8.32323	1.01426	0.417369	54.6631
8.42424	1.01426	0.417369	54.463
8.52525	1.01426	0.417369	54.2625
8.62626	1.01426	0.417369	54.0617
8.72727	1.01426	0.417369	53.8606
8.82828	1.01426	0.417369	53.6594
8.92929	1.01426	0.417369	53.4579
9.0303	1.01426	0.417369	53.2564
9.13131	1.01426	0.417369	53.0548
9.23232	1.01426	0.417369	52.853
9.33333	1.01426	0.417369	52.6513
9.43434	1.01426	0.417369	52.4494
9.53535	1.01426	0.417369	52.2476
9.63636	1.01426	0.417369	52.0457
9.73737	1.01426	0.417369	51.8437
9.83838	1.01426	0.417369	51.6418
9.93939	1.01426	0.417369	51.4398
10.0404	1.01426	0.417369	51.2378
10.1414	1.01426	0.417369	51.0359
10.2424	1.01426	0.417369	50.8339
10.3434	1.01426	0.417369	50.6319
10.4444	1.01426	0.417369	50.4299
10.5455	1.01426	0.417369	50.2278
10.6465	1.01426	0.417369	50.0258
10.7475	1.01426	0.417369	49.8238
10.8485	1.01426	0.417369	49.6218
10.9495	1.01426	0.417369	49.4197
11.0505	1.01426	0.417369	49.2177
11.1515	1.01426	0.417369	49.0155
11.2525	1.01426	0.417369	48.8132
11.3535	1.01426	0.417369	48.6103
11.4545	1.01426	0.417369	48.4063
11.5556	1.01426	0.417369	48.2002
11.6566	1.01426	0.417369	47.9907
11.7576	1.01426	0.417369	47.7762
11.8586	1.01426	0.417369	47.5552
11.9596	1.01426	0.417369	47.3265
12.0606	1.01426	0.417369	47.0893
12.1616	1.01426	0.417369	46.8433
12.2626	1.01426	0.417369	46.5888
12.3636	1.01426	0.417369	46.3261
12.4646	1.01426	0.417369	46.0561
12.5657	1.01426	0.417369	45.7794
12.6667	1.01426	0.417369	45.4969
12.7677	1.01426	0.417369	45.2093
12.8687	1.01426	0.417369	44.9171
12.9697	1.01426	0.417369	44.6208
13.0707	1.01426	0.417369	44.3209
13.1717	1.01426	0.417369	44.0175
13.2727	1.01426	0.417369	43.7108
13.3737	1.01426	0.417369	43.4008
13.4747	1.01426	0.417369	43.0874
13.5758	1.01426	0.417369	42.7703
13.6768	1.01426	0.417369	42.4492
13.7778	1.01426	0.417369	42.1236
13.8788	1.01426	0.417369	41.7929
13.9798	1.01426	0.417369	41.4562
14.0808	1.01426	0.417369	41.1125
14.1818	1.01426	0.417369	40.7607
14.2828	1.01426	0.417369	40.3991
14.3838	1.01426	0.417369	40.026
14.4848	1.01426	0.417369	39.639
14.5859	1.01426	0.417369	39.2354
14.6869	1.01426	0.417369	38.8116
14.7879	1.01426	0.417369	38.3635
14.8889	1.01426	0.417369	37.8858
14.9899	1.01426	0.417369	37.372
15.0909	1.01426	0.417369	36.8139
15.1919	1.01426	0.417369	36.2016
15.2929	1.01426	0.417369	35.5223
15.3939	1.01426	0.417369	34.7602
15.4949	1.01426	0.417369	33.8953
15.596	1.01426	0.417369	32.9019
15.697	1.01426	0.417369	31.7471
15.798	1.01426	0.417369	30.3874
15.899	1.01426	0.417369	28.7599
16	1.01426	0.417369	-inf
6	1.02853	0.58095	57.6928
6.10101	1.02853	0.58095	57.8007
6.20202	1.02853	0.58095	57.8571
6.30303	1.02853	0.58095	57.8675
6.40404	1.02853	0.58095	57.8383
6.50505	1.02853	0.58095	57.776
6.60606	1.02853	0.58095	57.6863
6.70707	1.02853	0.58095	57.5743
6.80808	1.02853	0.58095	57.4442
6.90909	1.02853	0.58095	57.2996
7.0101	1.02853	0.58095	57.1433
7.11111	1.02853	0.58095	56.9777
7.21212	1.02853	0.58095	56.8045
7.31313	1.02853	0.58095	56.6255
7.41414	1.02853	0.58095	56.4417
7.51515	1.02853	0.58095	56.2542
7.61616	1.02853	0.58095	56.0636
7.71717	1.02853	0.58095	55.8707
7.81818	1.02853	0.58095	55.6759
7.91919	1.02853	0.58095	55.4796
8.0202	1.02853	0.58095	55.2821
8.12121	1.02853	0.58095	55.0837
8.22222	1.02853	0.58095	54.8845
8.32323	1.02853	0.58095	54.6848
8.42424	1.02853	0.58095	54.4846
8.52525	1.02853	0.58095	54.284
8.62626	1.02853	0.58095	54.0831
8.72727	1.02853	0.58095	53.8819
8.82828	1.02853	0.58095	53.6806
8.92929	1.02853	0.58095	53.4792
9.0303	1.02853	0.58095	53.2776
9.13131	1.02853	0.58095	53.0759
9.23232	1.02853	0.58095	52.8742
9.33333	1.02853	0.58095	52.6724
9.43434	1.02853	0.58095	52.4705
9.53535	1.02853	0.58095	52.2686
9.63636	1.02853	0.58095	52.0667
9.73737	1.02853	0.58095	51.8648
9.83838	1.02853	0.58095	51.6628
9.93939	1.02853	0.58095	51.4609
10.0404	1.02853	0.58095	51.2589
10.1414	1.02853	0.58095	51.0569
10.2424	1.02853	0.58095	50.8549
10.3434	1.02853	0.58095	50.6529
10.4444	1.02853	0.58095	50.4509
10.5455	1.02853	0.58095	50.2489
10.6465	1.02853	0.58095	50.0468
10.7475	1.02853	0.58095	49.8447
10.8485	1.02853	0.58095	49.6425
10.9495	1.02853	0.58095	49.4401
11.0505	1.02853	0.58095	49.2372
11.1515	1.02853	0.58095	49.0335
11.2525	1.02853	0.58095	48.8284
11.3535	1.02853	0.58095	48.6209
11.4545	1.02853	0.58095	48.4098
11.5556	1.02853	0.58095	48.194
11.6566	1.02853	0.58095	47.9722
11.7576	1.02853	0.58095	47.7434
11.8586	1.02853	0.58095	47.5067
11.9596	1.02853	0.58095	47.2619
12.0606	1.02853	0.58095	47.0091
12.1616	1.02853	0.58095	46.7485
12.2626	1.02853	0.58095	46.4807
12.3636	1.02853	0.58095	46.2065
12.4646	1.02853	0.58095	45.9265
12.5657	1.02853	0.58095	45.6414
12.6667	1.02853	0.58095	45.3519
12.7677	1.02853	0.58095	45.0584
12.8687	1.02853	0.58095	44.7615
12.9697	1.02853	0.58095	44.4614
13.0707	1.02853	0.58095	44.1583
13.1717	1.02853	0.58095	43.8525
13.2727	1.02853	0.58095	43.5438
13.3737	1.02853	0.58095	43.2322
13.4747	1.02853	0.58095	42.9175
13.5758	1.02853	0.58095	42.5995
13.6768	1.02853	0.58095	42.2776
13.7778	1.02853	0.58095	41.9514
13.8788	1.02853	0.58095	41.6201
13.9798	1.02853	0.58095	41.2831
14.0808	1.02853	0.58095	40.9391
14.1818	1.02853	0.58095	40.587
14.2828	1.02853	0.58095	40.2253
14.3838	1.02853	0.58095	39.852
14.4848	1.02853	0.58095	39.465
14.5859	1.02853	0.58095	39.0612
14.6869	1.02853	0.58095	38.6374
14.7879	1.02853	0.58095	38.1893
14.8889	1.02853	0.58095	37.7115
14.9899	1.02853	0.58095	37.1977
15.0909	1.02853	0.58095	36.6396
15.1919	1.02853	0.58095	36.0272
15.2929	1.02853	0.58095	35.3479
15.3939	1.02853	0.58095	34.5858
15.4949	1.02853	0.58095	33.7209
15.596	1.02853	0.58095	32.7276
15.697	1.02853	0.58095	31.5727
15.798	1.02853	0.58095	30.213
15.899	1.02853	0.58095	28.5855
16	1.02853	0.58095	-inf
6	1.04279	0.708223	57.8808
6.10101	1.04279	0.708223	57.94
6.20202	1.04279	0.708223	57.962
6.30303	1.04279	0.708223	57.948
6.40404	1.04279	0.708223	57.9014
6.50505	1.04279	0.708223	57.8264
6.60606	1.04279	0.708223	57.7273
6.70707	1.04279	0.708223	57.6083
6.80808	1.04279	0.708223	57.473
6.90909	1.04279	0.708223	57.3243
7.0101	1.04279	0.708223	57.1649
7.11111	1.04279	0.708223	56.9968
7.21212	1.04279	0.708223	56.8219
7.31313	1.04279	0.708223	56.6414
7.41414	1.04279	0.708223	56.4564
7.51515	1.04279	0.708223	56.268
7.61616	1.04279	0.708223	56.0768
7.71717	1.04279	0.708223	55.8833
7.81818	1.04279	0.708223	55.6881
7.91919	1.04279	0.708223	55.4914
8.0202	1.04279	0.708223	55.2937
8.12121	1.04279	0.708223	55.095
8.22222	1.04279	0.708223	54.8957
8.32323	1.04279	0.708223	54.6958
8.42424	1.04279	0.708223	54.4955
8.52525	1.04279	0.708223	54.2948
8.62626	1.04279	0.708223	54.0938
8.72727	1.04279	0.708223	53.8927
8.82828	1.04279	0.708223	53.6913
8.92929	1.04279	0.708223	53.4898
9.0303	1.04279	0.708223	53.2882
9.13131	1.04279	0.708223	53.0865
9.23232	1.04279	0.708223	52.8848
9.33333	1.04279	0.708223	52.6829
9.43434	1.04279	0.708223	52.4811
9.53535	1.04279	0.708223	52.2792
9.63636	1.04279	0.708223	52.0773
9.73737	1.04279	0.708223	51.8753
9.83838	1.04279	0.708223	51.6734
9.93939	1.04279	0.708223	51.4714
10.0404	1.04279	0.708223	51.2694
10.1414	1.04279	0.708223	51.0674
10.2424	1.04279	0.708223	50.8654
10.3434	1.04279	0.708223	50.6634
10.4444	1.04279	0.708223	50.4613
10.5455	1.04279	0.708223	50.2592
10.6465	1.04279	0.708223	50.0569
10.7475	1.04279	0.708223	49.8544
10.8485	1.04279	0.708223	49.6515
10.9495	1.04279	0.708223	49.4479
11.0505	1.04279	0.708223	49.2432
11.1515	1.04279	0.708223	49.0366
11.2525	1.04279	0.708223	48.8274
11.3535	1.04279	0.708223	48.6145
11.4545	1.04279	0.708223	48.3968
11.5556	1.04279	0.708223	48.1733
11.6566	1.04279	0.708223	47.9431
11.7576	1.04279	0.708223	47.7055
11.8586	1.04279	0.708223	47.4601
11.9596	1.04279	0.708223	47.2071
12.0606	1.04279	0.708223	46.9467
12.1616	1.04279	0.708223	46.6794
12.2626	1.04279	0.708223	46.4057
12.3636	1.04279	0.708223	46.1264
12.4646	1.04279	0.708223	45.8422
12.5657	1.04279	0.708223	45.5536
12.6667	1.04279	0.708223	45.2611
12.7677	1.04279	0.708223	44.9653
12.8687	1.04279	0.708223	44.6665
12.9697	1.04279	0.708223	44.3648
13.0707	1.04279	0.708223	44.0605
13.1717	1.04279	0.708223	43.7537
13.2727	1.04279	0.708223	43.4442
13.3737	1.04279	0.708223	43.132
13.4747	1.04279	0.708223	42.8168
13.5758	1.04279	0.708223	42.4983
13.6768	1.04279	0.708223	42.1761
13.7778	1.04279	0.708223	41.8497
13.8788	1.04279	0.708223	41.5183
13.9798	1.04279	0.708223	41.181
14.0808	1.04279	0.708223	40.837
14.1818	1.04279	0.708223	40.4848
14.2828	1.04279	0.708223	40.123
14.3838	1.04279	0.708223	39.7497
14.4848	1.04279	0.708223	39.3626
14.5859	1.04279	0.708223	38.9588
14.6869	1.04279	0.708223	38.535
14.7879	1.04279	0.708223	38.0868
14.8889	1.04279	0.708223	37.6091
14.9899	1.04279	0.708223	37.0952
15.0909	1.04279	0.708223	36.5371
15.1919	1.04279	0.708223	35.9247
15.2929	1.04279	0.708223	35.2454
15.3939	1.04279	0.708223	34.4833
15.4949	1.04279	0.708223	33.6184
15.596	1.04279	0.708223	32.6251
15.697	1.04279	0.708223	31.4702
15.798	1.04279	0.708223	30.1105
15.899	1.04279	0.708223	28.483
16	1.04279	0.708223	-inf
6	1.05706	0.817905	58.0181
6.10101	1.05706	0.817905	58.0431
6.20202	1.05706	0.817905	58.0398
6.30303	1.05706	0.817905	58.0073
6.40404	1.05706	0.817905	57.9472
6.50505	1.05706	0.817905	57.8623
6.60606	1.05706	0.817905	57.7559
6.70707	1.05706	0.817905	57.6314
6.80808	1.05706	0.817905	57.4919
6.90909	1.05706	0.817905	57.34
7.0101	1.05706	0.817905	57.1782
7.11111	1.05706	0.817905	57.0082
7.21212	1.05706	0.817905	56.8318
7.31313	1.05706	0.817905	56.6501
7.41414	1.05706	0.817905	56.4643
7.51515	1.05706	0.817905	56.2752
7.61616	1.05706	0.817905	56.0834
7.71717	1.05706	0.817905	55.8895
7.81818	1.05706	0.817905	55.6939
7.91919	1.05706	0.817905	55.497
8.0202	1.05706	0.817905	55.2991
8.12121	1.05706	0.817905	55.1003
8.22222	1.05706	0.817905	54.9008
8.32323	1.05706	0.817905	54.7008
8.42424	1.05706	0.817905	54.5004
8.52525	1.05706	0.817905	54.2996
8.62626	1.05706	0.817905	54.0986
8.72727	1.05706	0.817905	53.8974
8.82828	1.05706	0.817905	53.696
8.92929	1.05706	0.817905	53.4945
9.0303	1.05706	0.817905	53.2929
9.13131	1.05706	0.817905	53.0911
9.23232	1.05706	0.817905	52.8894
9.33333	1.05706	0.817905	52.6876
9.43434	1.05706	0.817905	52.4857
9.53535	1.05706	0.817905	52.2838
9.63636	1.05706	0.817905	52.0819
9.73737	1.05706	0.817905	51.8799
9.83838	1.05706	0.817905	51.678
9.93939	1.05706	0.817905	51.476
10.0404	1.05706	0.817905	51.274
10.1414	1.05706	0.817905	51.0719
10.2424	1.05706	0.817905	50.8699
10.3434	1.05706	0.817905	50.6677
10.4444	1.05706	0.817905	50.4655
10.5455	1.05706	0.817905	50.2631
10.6465	1.05706	0.817905	50.0603
10.7475	1.05706	0.817905	49.8571
10.8485	1.05706	0.817905	49.6531
10.9495	1.05706	0.817905	49.4479
11.0505	1.05706	0.817905	49.2408
11.1515	1.05706	0.817905	49.0313
11.2525	1.05706	0.817905	48.8183
11.3535	1.05706	0.817905	48.6009
11.4545	1.05706	0.817905	48.3781
11.5556	1.05706	0.817905	48.149
11.6566	1.05706	0.817905	47.913
11.7576	1.05706	0.817905	47.6698
11.8586	1.05706	0.817905	47.419
11.9596	1.05706	0.817905	47.1611
12.0606	1.05706	0.817905	46.8962
12.1616	1.05706	0.817905	46.6249
12.2626	1.05706	0.817905	46.3479
12.3636	1.05706	0.817905	46.0658
12.4646	1.05706	0.817905	45.7791
12.5657	1.05706	0.817905	45.4886
12.6667	1.05706	0.817905	45.1945
12.7677	1.05706	0.817905	44.8974
12.8687	1.05706	0.817905	44.5975
12.9697	1.05706	0.817905	44.295
13.0707	1.05706	0.817905	43.99
13.1717	1.05706	0.817905	43.6826
13.2727	1.05706	0.817905	43.3727
13.3737	1.05706	0.817905	43.0601
13.4747	1.05706	0.817905	42.7447
13.5758	1.05706	0.817905	42.426
13.6768	1.05706	0.817905	42.1036
13.7778	1.05706	0.817905	41.777
13.8788	1.05706	0.817905	41.4455
13.9798	1.05706	0.817905	41.1082
14.0808	1.05706	0.817905	40.7641
14.1818	1.05706	0.817905	40.4119
14.2828	1.05706	0.817905	40.05
14.3838	1.05706	0.817905	39.6767
14.4848	1.05706	0.817905	39.2895
14.5859	1.05706	0.817905	38.8858
14.6869	1.05706	0.817905	38.4619
14.7879	1.05706	0.817905	38.0137
14.8889	1.05706	0.817905	37.536
14.9899	1.05706	0.817905	37.0221
15.0909	1.05706	0.817905	36.464
15.1919	1.05706	0.817905	35.8516
15.2929	1.05706	0.817905	35.1723
15.3939	1.05706	0.817905	34.4102
15.4949	1.05706	0.817905	33.5453
15.596	1.05706	0.817905	32.552
15.697	1.05706	0.817905	31.3971
15.798	1.05706	0.817905	30.0374
15.899	1.05706	0.817905	28.4099
16	1.05706	0.817905	-inf
6	1.07132	0.903305	58.1131
6.10101	1.07132	0.903305	58.1119
6.20202	1.07132	0.903305	58.0885
6.30303	1.07132	0.903305	58.0409
6.40404	1.07132	0.903305	57.9695
6.50505	1.07132	0.903305	57.8763
6.60606	1.07132	0.903305	57.7636
6.70707	1.07132	0.903305	57.6344
6.80808	1.07132	0.903305	57.4913
6.90909	1.07132	0.903305	57.3367
7.0101	1.07132	0.903305	57.1728
7.11111	1.07132	0.903305	57.0012
7.21212	1.07132	0.903305	56.8235
7.31313	1.07132	0.903305	56.6409
7.41414	1.07132	0.903305	56.4543
7.51515	1.07132	0.903305	56.2645
7.61616	1.07132	0.903305	56.0723
7.71717	1.07132	0.903305	55.878
7.81818	1.07132	0.903305	55.6821
7.91919	1.07132	0.903305	55.485
8.0202	1.07132	0.903305	55.2868
8.12121	1.07132	0.903305	55.0879
8.22222	1.07132	0.903305	54.8883
8.32323	1.07132	0.903305	54.6882
8.42424	1.07132	0.903305	54.4877
8.52525	1.07132	0.903305	54.2869
8.62626	1.07132	0.903305	54.0859
8.72727	1.07132	0.903305	53.8846
8.82828	1.07132	0.903305	53.6832
8.92929	1.07132	0.903305	53.4816
9.0303	1.07132	0.903305	53.28
9.13131	1.07132	0.903305	53.0783
9.23232	1.07132	0.903305	52.8765
9.33333	1.07132	0.903305	52.6747
9.43434	1.07132	0.903305	52.4728
9.53535	1.07132	0.903305	52.2709
9.63636	1.07132	0.903305	52.0689
9.73737	1.07132	0.903305	51.867
9.83838	1.07132	0.903305	51.665
9.93939	1.07132	0.903305	51.463
10.0404	1.07132	0.903305	51.2609
10.1414	1.07132	0.903305	51.0588
10.2424	1.07132	0.903305	50.8566
10.3434	1.07132	0.903305	50.6543
10.4444	1.07132	0.903305	50.4517
10.5455	1.07132	0.903305	50.2488
10.6465	1.07132	0.903305	50.0454
10.7475	1.07132	0.903305	49.8412
10.8485	1.07132	0.903305	49.6358
10.9495	1.07132	0.903305	49.4288
11.0505	1.07132	0.903305	49.2195
11.1515	1.07132	0.903305	49.007
11.2525	1.07132	0.903305	48.7906
11.3535	1.07132	0.903305	48.5694
11.4545	1.07132	0.903305	48.3425
11.5556	1.07132	0.903305	48.1092
11.6566	1.07132	0.903305	47.869
11.7576	1.07132	0.903305	47.6217
11.8586	1.07132	0.903305	47.3672
11.9596	1.07132	0.903305	47.1057
12.0606	1.07132	0.903305	46.8378
12.1616	1.07132	0.903305	46.5639
12.2626	1.07132	0.903305	46.2846
12.3636	1.07132	0.903305	46.0006
12.4646	1.07132	0.903305	45.7124
12.5657	1.07132	0.903305	45.4205
12.6667	1.07132	0.903305	45.1254
12.7677	1.07132	0.903305	44.8274
12.8687	1.07132	0.903305	44.5268
12.9697	1.07132	0.903305	44.2237
13.0707	1.07132	0.903305	43.9183
13.1717	1.07132	0.903305	43.6106
13.2727	1.07132	0.903305	43.3004
13.3737	1.07132	0.903305	42.9876
13.4747	1.07132	0.903305	42.672
13.5758	1.07132	0.903305	42.3531
13.6768	1.07132	0.903305	42.0307
13.7778	1.07132	0.903305	41.704
13.8788	1.07132	0.903305	41.3724
13.9798	1.07132	0.903305	41.035
14.0808	1.07132	0.903305	40.6909
14.1818	1.07132	0.903305	40.3386
14.2828	1.07132	0.903305	39.9768
14.3838	1.07132	0.903305	39.6034
14.4848	1.07132	0.903305	39.2162
14.5859	1.07132	0.903305	38.8125
14.6869	1.07132	0.903305	38.3886
14.7879	1.07132	0.903305	37.9404
14.8889	1.07132	0.903305	37.4627
14.9899	1.07132	0.903305	36.9488
15.0909	1.07132	0.903305	36.3907
15.1919	1.07132	0.903305	35.7783
15.2929	1.07132	0.903305	35.099
15.3939	1.07132	0.903305	34.3369
15.4949	1.07132	0.903305	33.472
15.596	1.07132	0.903305	32.4786
15.697	1.07132	0.903305	31.3237
15.798	1.07132	0.903305	29.9641
15.899	1.07132	0.903305	28.3365
16	1.07132	0.903305	-inf
6	1.08559	0.983583	58.1807
6.10101	1.08559	0.983583	58.1607
6.20202	1.08559	0.983583	58.1224
6.30303	1.08559	0.983583	58.0635
6.40404	1.08559	0.983583	57.9835
6.50505	1.08559	0.983583	57.8837
6.60606	1.08559	0.983583	57.7662
6.70707	1.08559	0.983583	57.6333
6.80808	1.08559	0.983583	57.4873
6.90909	1.08559	0.983583	57.3306
7.0101	1.08559	0.983583	57.165
7.11111	1.08559	0.983583	56.9921
7.21212	1.08559	0.983583	56.8134
7.31313	1.08559	0.983583	56.63
7.41414	1.08559	0.983583	56.4428
7.51515	1.08559	0.983583	56.2525
7.61616	1.08559	0.983583	56.0599
7.71717	1.08559	0.983583	55.8653
7.81818	1.08559	0.983583	55.6692
7.91919	1.08559	0.983583	55.4719
8.0202	1.08559	0.983583	55.2736
8.12121	1.08559	0.983583	55.0745
8.22222	1.08559	0.983583	54.8749
8.32323	1.08559	0.983583	54.6747
8.42424	1.08559	0.983583	54.4741
8.52525	1.08559	0.983583	54.2733
8.62626	1.08559	0.983583	54.0722
8.72727	1.08559	0.983583	53.8709
8.82828	1.08559	0.983583	53.6695
8.92929	1.08559	0.983583	53.4679
9.0303	1.08559	0.983583	53.2663
9.13131	1.08559	0.983583	53.0645
9.23232	1.08559	0.983583	52.8627
9.33333	1.08559	0.983583	52.6609
9.43434	1.08559	0.983583	52.459
9.53535	1.08559	0.983583	52.2571
9.63636	1.08559	0.983583	52.0551
9.73737	1.08559	0.983583	51.8531
9.83838	1.08559	0.983583	51.6511
9.93939	1.08559	0.983583	51.449
10.0404	1.08559	0.983583	51.2469
10.1414	1.08559	0.983583	51.0446
10.2424	1.08559	0.983583	50.8423
10.3434	1.08559	0.983583	50.6396
10.4444	1.08559	0.983583	50.4367
10.5455	1.08559	0.983583	50.2332
10.6465	1.08559	0.983583	50.0291
10.7475	1.08559	0.983583	49.8239
10.8485	1.08559	0.983583	49.6172
10.9495	1.08559	0.983583	49.4084
11.0505	1.08559	0.983583	49.197
11.1515	1.08559	0.983583	48.9822
11.2525	1.08559	0.983583	48.7631
11.3535	1.08559	0.983583	48.5389
11.4545	1.08559	0.983583	48.3089
11.5556	1.08559	0.983583	48.0725
11.6566	1.08559	0.983583	47.8292
11.7576	1.08559	0.983583	47.5789
11.8586	1.08559	0.983583	47.3217
11.9596	1.08559	0.983583	47.0579
12.0606	1.08559	0.983583	46.7878
12.1616	1.08559	0.983583	46.5121
12.2626	1.08559	0.983583	46.2312
12.3636	1.08559	0.983583	45.9459
12.4646	1.08559	0.983583	45.6566
12.5657	1.08559	0.983583	45.3638
12.6667	1.08559	0.983583	45.068
12.7677	1.08559	0.983583	44.7694
12.8687	1.08559	0.983583	44.4683
12.9697	1.08559	0.983583	44.1649
13.0707	1.08559	0.983583	43.8592
13.1717	1.08559	0.983583	43.5512
13.2727	1.08559	0.983583	43.2408
13.3737	1.08559	0.983583	42.9278
13.4747	1.08559	0.983583	42.6121
13.5758	1.08559	0.983583	42.2932
13.6768	1.08559	0.983583	41.9706
13.7778	1.08559	0.983583	41.6439
13.8788	1.08559	0.983583	41.3122
13.9798	1.08559	0.983583	40.9749
14.0808	1.08559	0.983583	40.6307
14.1818	1.08559	0.983583	40.2784
14.2828	1.08559	0.983583	39.9165
14.3838	1.08559	0.983583	39.5431
14.4848	1.08559	0.983583	39.156
14.5859	1.08559	0.983583	38.7522
14.6869	1.08559	0.983583	38.3283
14.7879	1.08559	0.983583	37.8801
14.8889	1.08559	0.983583	37.4024
14.9899	1.08559	0.983583	36.8885
15.0909	1.08559	0.983583	36.3304
15.1919	1.08559	0.983583	35.718
15.2929	1.08559	0.983583	35.0387
15.3939	1.08559	0.983583	34.2766
15.4949	1.08559	0.983583	33.4117
15.596	1.08559	0.983583	32.4183
15.697	1.08559	0.983583	31.2634
15.798	1.08559	0.983583	29.9037
15.899	1.08559	0.983583	28.2762
16	1.08559	0.983583	-inf
6	1.09985	1.05931	58.2286
6.10101	1.09985	1.05931	58.1946
6.20202	1.09985	1.05931	58.145
6.30303	1.09985	1.05931	58.0772
6.40404	1.09985	1.05931	57.9905
6.50505	1.09985	1.05931	57.8856
6.60606	1.09985	1.05931	57.7641
6.70707	1.09985	1.05931	57.6282
6.80808	1.09985	1.05931	57.48
6.90909	1.09985	1.05931	57.3215
7.0101	1.09985	1.05931	57.1546
7.11111	1.09985	1.05931	56.9807
7.21212	1.09985	1.05931	56.8011
7.31313	1.09985	1.05931	56.6171
7.41414	1.09985	1.05931	56.4294
7.51515	1.09985	1.05931	56.2387
7.61616	1.09985	1.05931	56.0458
7.71717	1.09985	1.05931	55.851
7.81818	1.09985	1.05931	55.6547
7.91919	1.09985	1.05931	55.4572
8.0202	1.09985	1.05931	55.2588
8.12121	1.09985	1.05931	55.0596
8.22222	1.09985	1.05931	54.8599
8.32323	1.09985	1.05931	54.6596
8.42424	1.09985	1.05931	54.459
8.52525	1.09985	1.05931	54.2582
8.62626	1.09985	1.05931	54.057
8.72727	1.09985	1.05931	53.8557
8.82828	1.09985	1.05931	53.6543
8.92929	1.09985	1.05931	53.4527
9.0303	1.09985	1.05931	53.251
9.13131	1.09985	1.05931	53.0493
9.23232	1.09985	1.05931	52.8475
9.33333	1.09985	1.05931	52.6456
9.43434	1.09985	1.05931	52.4437
9.53535	1.09985	1.05931	52.2418
9.63636	1.09985	1.05931	52.0398
9.73737	1.09985	1.05931	51.8377
9.83838	1.09985	1.05931	51.6357
9.93939	1.09985	1.05931	51.4335
10.0404	1.09985	1.05931	51.2312
10.1414	1.09985	1.05931	51.0288
10.2424	1.09985	1.05931	50.8262
10.3434	1.09985	1.05931	50.6233
10.4444	1.09985	1.05931	50.4199
10.5455	1.09985	1.05931	50.2159
10.6465	1.09985	1.05931	50.0109
10.7475	1.09985	1.05931	49.8047
10.8485	1.09985	1.05931	49.5968
10.9495	1.09985	1.05931	49.3866
11.0505	1.09985	1.05931	49.1734
11.1515	1.09985	1.05931	48.9566
11.2525	1.09985	1.05931	48.7353
11.3535	1.09985	1.05931	48.5087
11.4545	1.09985	1.05931	48.2763
11.5556	1.09985	1.05931	48.0374
11.6566	1.09985	1.05931	47.7917
11.7576	1.09985	1.05931	47.5392
11.8586	1.09985	1.05931	47.28
11.9596	1.09985	1.05931	47.0143
12.0606	1.09985	1.05931	46.7427
12.1616	1.09985	1.05931	46.4655
12.2626	1.09985	1.05931	46.1836
12.3636	1.09985	1.05931	45.8972
12.4646	1.09985	1.05931	45.6071
12.5657	1.09985	1.05931	45.3137
12.6667	1.09985	1.05931	45.0173
12.7677	1.09985	1.05931	44.7183
12.8687	1.09985	1.05931	44.4169
12.9697	1.09985	1.05931	44.1132
13.0707	1.09985	1.05931	43.8072
13.1717	1.09985	1.05931	43.499
13.2727	1.09985	1.05931	43.1885
13.3737	1.09985	1.05931	42.8755
13.4747	1.09985	1.05931	42.5596
13.5758	1.09985	1.05931	42.2406
13.6768	1.09985	1.05931	41.918
13.7778	1.09985	1.05931	41.5912
13.8788	1.09985	1.05931	41.2596
13.9798	1.09985	1.05931	40.9222
14.0808	1.09985	1.05931	40.5779
14.1818	1.09985	1.05931	40.2257
14.2828	1.09985	1.05931	39.8638
14.3838	1.09985	1.05931	39.4904
14.4848	1.09985	1.05931	39.1032
14.5859	1.09985	1.05931	38.6994
14.6869	1.09985	1.05931	38.2755
14.7879	1.09985	1.05931	37.8273
14.8889	1.09985	1.05931	37.3496
14.9899	1.09985	1.05931	36.8357
15.0909	1.09985	1.05931	36.2776
15.1919	1.09985	1.05931	35.6652
15.2929	1.09985	1.05931	34.9859
15.3939	1.09985	1.05931	34.2238
15.4949	1.09985	1.05931	33.3589
15.596	1.09985	1.05931	32.3655
15.697	1.09985	1.05931	31.2107
15.798	1.09985	1.05931	29.851
15.899	1.09985	1.05931	28.2234
16	1.09985	1.05931	-inf
6	1.11412	1.12356	58.2574
6.10101	1.11412	1.12356	58.2121
6.20202	1.11412	1.12356	58.1533
6.30303	1.11412	1.12356	58.0781
6.40404	1.11412	1.12356	57.9857
6.50505	1.11412	1.12356	57.8764
6.60606	1.11412	1.12356	57.7516
6.70707	1.11412	1.12356	57.6131
6.80808	1.11412	1.12356	57.463
6.90909	1.11412	1.12356	57.303
7.0101	1.11412	1.12356	57.1348
7.11111	1.11412	1.12356	56.96
7.21212	1.11412	1.12356	56.7798
7.31313	1.11412	1.12356	56.5951
7.41414	1.11412	1.12356	56.407
7.51515	1.11412	1.12356	56.216
7.61616	1.11412	1.12356	56.0228
7.71717	1.11412	1.12356	55.8278
7.81818	1.11412	1.12356	55.6313
7.91919	1.11412	1.12356	55.4337
8.0202	1.11412	1.12356	55.2352
8.12121	1.11412	1.12356	55.036
8.22222	1.11412	1.12356	54.8361
8.32323	1.11412	1.12356	54.6359
8.42424	1.11412	1.12356	54.4352
8.52525	1.11412	1.12356	54.2343
8.62626	1.11412	1.12356	54.0331
8.72727	1.11412	1.12356	53.8318
8.82828	1.11412	1.12356	53.6303
8.92929	1.11412	1.12356	53.4287
9.0303	1.11412	1.12356	53.2271
9.13131	1.11412	1.12356	53.0253
9.23232	1.11412	1.12356	52.8235
9.33333	1.11412	1.12356	52.6216
9.43434	1.11412	1.12356	52.4197
9.53535	1.11412	1.12356	52.2177
9.63636	1.11412	1.12356	52.0157
9.73737	1.11412	1.12356	51.8136
9.83838	1.11412	1.12356	51.6114
9.93939	1.11412	1.12356	51.4092
10.0404	1.11412	1.12356	51.2068
10.1414	1.11412	1.12356	51.0042
10.2424	1.11412	1.12356	50.8013
10.3434	1.11412	1.12356	50.598
10.4444	1.11412	1.12356	50.3942
10.5455	1.11412	1.12356	50.1896
10.6465	1.11412	1.12356	49.9839
10.7475	1.11412	1.12356	49.7767
10.8485	1.11412	1.12356	49.5676
10.9495	1.11412	1.12356	49.3561
11.0505	1.11412	1.12356	49.1413
11.1515	1.11412	1.12356	48.9227
11.2525	1.11412	1.12356	48.6995
11.3535	1.11412	1.12356	48.471
11.4545	1.11412	1.12356	48.2365
11.5556	1.11412	1.12356	47.9957
11.6566	1.11412	1.12356	47.7481
11.7576	1.11412	1.12356	47.4938
11.8586	1.11412	1.12356	47.233
11.9596	1.11412	1.12356	46.9659
12.0606	1.11412	1.12356	46.693
12.1616	1.11412	1.12356	46.4148
12.2626	1.11412	1.12356	46.1319
12.3636	1.11412	1.12356	45.8448
12.4646	1.11412	1.12356	45.5541
12.5657	1.11412	1.12356	45.2601
12.6667	1.11412	1.12356	44.9633
12.7677	1.11412	1.12356	44.664
12.8687	1.11412	1.12356	44.3623
12.9697	1.11412	1.12356	44.0583
13.0707	1.11412	1.12356	43.7522
13.1717	1.11412	1.12356	43.4439
13.2727	1.11412	1.12356	43.1333
13.3737	1.11412	1.12356	42.8201
13.4747	1.11412	1.12356	42.5042
13.5758	1.11412	1.12356	42.1852
13.6768	1.11412	1.12356	41.8625
13.7778	1.11412	1.12356	41.5357
13.8788	1.11412	1.12356	41.204
13.9798	1.11412	1.12356	40.8666
14.0808	1.11412	1.12356	40.5224
14.1818	1.11412	1.12356	40.1701
14.2828	1.11412	1.12356	39.8082
14.3838	1.11412	1.12356	39.4348
14.4848	1.11412	1.12356	39.0476
14.5859	1.11412	1.12356	38.6438
14.6869	1.11412	1.12356	38.2199
14.7879	1.11412	1.12356	37.7717
14.8889	1.11412	1.12356	37.2939
14.9899	1.11412	1.12356	36.7801
15.0909	1.11412	1.12356	36.222
15.1919	1.11412	1.12356	35.6096
15.2929	1.11412	1.12356	34.9303
15.3939	1.11412	1.12356	34.1682
15.4949	1.11412	1.12356	33.3033
15.596	1.11412	1.12356	32.3099
15.697	1.11412	1.12356	31.155
15.798	1.11412	1.12356	29.7953
15.899	1.11412	1.12356	28.1678
16	1.11412	1.12356	-inf
6	1.12838	1.18402	58.2743
6.10101	1.12838	1.18402	58.2203
6.20202	1.12838	1.18402	58.154
6.30303	1.12838	1.18402	58.0729
6.40404	1.12838	1.18402	57.9758
6.50505	1.12838	1.18402	57.863
6.60606	1.12838	1.18402	57.7354
6.70707	1.12838	1.18402	57.5948
6.80808	1.12838	1.18402	57.443
6.90909	1.12838	1.18402	57.2818
7.0101	1.12838	1.18402	57.1126
7.11111	1.12838	1.18402	56.9371
7.21212	1.12838	1.18402	56.7562
7.31313	1.12838	1.18402	56.5712
7.41414	1.12838	1.18402	56.3827
7.51515	1.12838	1.18402	56.1914
7.61616	1.12838	1.18402	55.998
7.71717	1.12838	1.18402	55.8027
7.81818	1.12838	1.18402	55.6061
7.91919	1.12838	1.18402	55.4084
8.0202	1.12838	1.18402	55.2098
8.12121	1.12838	1.18402	55.0105
8.22222	1.12838	1.18402	54.8106
8.32323	1.12838	1.18402	54.6103
8.42424	1.12838	1.18402	54.4096
8.52525	1.12838	1.18402	54.2087
8.62626	1.12838	1.18402	54.0075
8.72727	1.12838	1.18402	53.8062
8.82828	1.12838	1.18402	53.6047
8.92929	1.12838	1.18402	53.4031
9.0303	1.12838	1.18402	53.2014
9.13131	1.12838	1.18402	52.9996
9.23232	1.12838	1.18402	52.7977
9.33333	1.12838	1.18402	52.5958
9.43434	1.12838	1.18402	52.3939
9.53535	1.12838	1.18402	52.1919
9.63636	1.12838	1.18402	51.9898
9.73737	1.12838	1.18402	51.7877
9.83838	1.12838	1.18402	51.5854
9.93939	1.12838	1.18402	51.3831
10.0404	1.12838	1.18402	51.1805
10.1414	1.12838	1.18402	50.9777
10.2424	1.12838	1.18402	50.7745
10.3434	1.12838	1.18402	50.5709
10.4444	1.12838	1.18402	50.3666
10.5455	1.12838	1.18402	50.1614
10.6465	1.12838	1.18402	49.955
10.7475	1.12838	1.18402	49.747
10.8485	1.12838	1.18402	49.5369
10.9495	1.12838	1.18402	49.3242
11.0505	1.12838	1.18402	49.1081
11.1515	1.12838	1.18402	48.888
11.2525	1.12838	1.18402	48.6632
11.3535	1.12838	1.18402	48.433
11.4545	1.12838	1.18402	48.1969
11.5556	1.12838	1.18402	47.9544
11.6566	1.12838	1.18402	47.7053
11.7576	1.12838	1.18402	47.4496
11.8586	1.12838	1.18402	47.1874
11.9596	1.12838	1.18402	46.9192
12.0606	1.12838	1.18402	46.6452
12.1616	1.12838	1.18402	46.3662
12.2626	1.12838	1.18402	46.0826
12.3636	1.12838	1.18402	45.7949
12.4646	1.12838	1.18402	45.5037
12.5657	1.12838	1.18402	45.2093
12.6667	1.12838	1.18402	44.9122
12.7677	1.12838	1.18402	44.6125
12.8687	1.12838	1.18402	44.3106
12.9697	1.12838	1.18402	44.0065
13.0707	1.12838	1.18402	43.7002
13.1717	1.12838	1.18402	43.3918
13.2727	1.12838	1.18402	43.0811
13.3737	1.12838	1.18402	42.7679
13.4747	1.12838	1.18402	42.4519
13.5758	1.12838	1.18402	42.1328
13.6768	1.12838	1.18402	41.8101
13.7778	1.12838	1.18402	41.4833
13.8788	1.12838	1.18402	41.1516
13.9798	1.12838	1.18402	40.8141
14.0808	1.12838	1.18402	40.4699
14.1818	1.12838	1.18402	40.1176
14.2828	1.12838	1.18402	39.7557
14.3838	1.12838	1.18402	39.3823
14.4848	1.12838	1.18402	38.9951
14.5859	1.12838	1.18402	38.5913
14.6869	1.12838	1.18402	38.1674
14.7879	1.12838	1.18402	37.7192
14.8889	1.12838	1.18402	37.2414
14.9899	1.12838	1.18402	36.7275
15.0909	1.12838	1.18402	36.1695
15.1919	1.12838	1.18402	35.5571
15.2929	1.12838	1.18402	34.8777
15.3939	1.12838	1.18402	34.1157
15.4949	1.12838	1.18402	33.2507
15.596	1.12838	1.18402	32.2574
15.697	1.12838	1.18402	31.1025
15.798	1.12838	1.18402	29.7428
15.899	1.12838	1.18402	28.1153
16	1.12838	1.18402	-inf
6	1.14265	1.24248	58.283
6.10101	1.14265	1.24248	58.2219
6.20202	1.14265	1.24248	58.1497
6.30303	1.14265	1.24248	58.0639
6.40404	1.14265	1.24248	57.963
6.50505	1.14265	1.24248	57.8471
6.60606	1.14265	1.24248	57.7173
6.70707	1.14265	1.24248	57.575
6.80808	1.14265	1.24248	57.4218
6.90909	1.14265	1.24248	57.2595
7.0101	1.14265	1.24248	57.0896
7.11111	1.14265	1.24248	56.9133
7.21212	1.14265	1.24248	56.732
7.31313	1.14265	1.24248	56.5465
7.41414	1.14265	1.24248	56.3577
7.51515	1.14265	1.24248	56.1662
7.61616	1.14265	1.24248	55.9726
7.71717	1.14265	1.24248	55.7773
7.81818	1.14265	1.24248	55.5805
7.91919	1.14265	1.24248	55.3827
8.0202	1.14265	1.24248	55.184
8.12121	1.14265	1.24248	54.9847
8.22222	1.14265	1.24248	54.7847
8.32323	1.14265	1.24248	54.5844
8.42424	1.14265	1.24248	54.3837
8.52525	1.14265	1.24248	54.1827
8.62626	1.14265	1.24248	53.9815
8.72727	1.14265	1.24248	53.7802
8.82828	1.14265	1.24248	53.5786
8.92929	1.14265	1.24248	53.377
9.0303	1.14265	1.24248	53.1753
9.13131	1.14265	1.24248	52.9735
9.23232	1.14265	1.24248	52.7717
9.33333	1.14265	1.24248	52.5697
9.43434	1.14265	1.24248	52.3678
9.53535	1.14265	1.24248	52.1657
9.63636	1.14265	1.24248	51.9636
9.73737	1.14265	1.24248	51.7614
9.83838	1.14265	1.24248	51.559
9.93939	1.14265	1.24248	51.3565
10.0404	1.14265	1.24248	51.1538
10.1414	1.14265	1.24248	50.9508
10.2424	1.14265	1.24248	50.7474
10.3434	1.14265	1.24248	50.5434
10.4444	1.14265	1.24248	50.3387
10.5455	1.14265	1.24248	50.133
10.6465	1.14265	1.24248	49.9259
10.7475	1.14265	1.24248	49.7171
10.8485	1.14265	1.24248	49.5061
10.9495	1.14265	1.24248	49.2923
11.0505	1.14265	1.24248	49.0751
11.1515	1.14265	1.24248	48.8537
11.2525	1.14265	1.24248	48.6276
11.3535	1.14265	1.24248	48.396
11.4545	1.14265	1.24248	48.1585
11.5556	1.14265	1.24248	47.9146
11.6566	1.14265	1.24248	47.6642
11.7576	1.14265	1.24248	47.4073
11.8586	1.14265	1.24248	47.1441
11.9596	1.14265	1.24248	46.8748
12.0606	1.14265	1.24248	46.6001
12.1616	1.14265	1.24248	46.3203
12.2626	1.14265	1.24248	46.0361
12.3636	1.14265	1.24248	45.7479
12.4646	1.14265	1.24248	45.4562
12.5657	1.14265	1.24248	45.1615
12.6667	1.14265	1.24248	44.8641
12.7677	1.14265	1.24248	44.5642
12.8687	1.14265	1.24248	44.2621
12.9697	1.14265	1.24248	43.9579
13.0707	1.14265	1.24248	43.6515
13.1717	1.14265	1.24248	43.343
13.2727	1.14265	1.24248	43.0322
13.3737	1.14265	1.24248	42.7189
13.4747	1.14265	1.24248	42.4029
13.5758	1.14265	1.24248	42.0838
13.6768	1.14265	1.24248	41.7611
13.7778	1.14265	1.24248	41.4342
13.8788	1.14265	1.24248	41.1025
13.9798	1.14265	1.24248	40.765
14.0808	1.14265	1.24248	40.4207
14.1818	1.14265	1.24248	40.0684
14.2828	1.14265	1.24248	39.7065
14.3838	1.14265	1.24248	39.3331
14.4848	1.14265	1.24248	38.9459
14.5859	1.14265	1.24248	38.5421
14.6869	1.14265	1.24248	38.1182
14.7879	1.14265	1.24248	37.67
14.8889	1.14265	1.24248	37.1922
14.9899	1.14265	1.24248	36.6784
15.0909	1.14265	1.24248	36.1203
15.1919	1.14265	1.24248	35.5079
15.2929	1.14265	1.24248	34.8286
15.3939	1.14265	1.24248	34.0665
15.4949	1.14265	1.24248	33.2016
15.596	1.14265	1.24248	32.2082
15.697	1.14265	1.24248	31.0533
15.798	1.14265	1.24248	29.6936
15.899	1.14265	1.24248	28.0661
16	1.14265	1.24248	-inf
6	1.15691	1.3003	58.2861
6.10101	1.15691	1.3003	58.2193
6.20202	1.15691	1.3003	58.1424
6.30303	1.15691	1.3003	58.0526
6.40404	1.15691	1.3003	57.9486
6.50505	1.15691	1.3003	57.8303
6.60606	1.15691	1.3003	57.6985
6.70707	1.15691	1.3003	57.5547
6.80808	1.15691	1.3003	57.4005
6.90909	1.15691	1.3003	57.2373
7.0101	1.15691	1.3003	57.0667
7.11111	1.15691	1.3003	56.8899
7.21212	1.15691	1.3003	56.7082
7.31313	1.15691	1.3003	56.5224
7.41414	1.15691	1.3003	56.3333
7.51515	1.15691	1.3003	56.1416
7.61616	1.15691	1.3003	55.9478
7.71717	1.15691	1.3003	55.7523
7.81818	1.15691	1.3003	55.5555
7.91919	1.15691	1.3003	55.3576
8.0202	1.15691	1.3003	55.1589
8.12121	1.15691	1.3003	54.9595
8.22222	1.15691	1.3003	54.7595
8.32323	1.15691	1.3003	54.5591
8.42424	1.15691	1.3003	54.3584
8.52525	1.15691	1.3003	54.1574
8.62626	1.15691	1.3003	53.9562
8.72727	1.15691	1.3003	53.7548
8.82828	1.15691	1.3003	53.5533
8.92929	1.15691	1.3003	53.3516
9.0303	1.15691	1.3003	53.1499
9.13131	1.15691	1.3003	52.9481
9.23232	1.15691	1.3003	52.7462
9.33333	1.15691	1.3003	52.5443
9.43434	1.15691	1.3003	52.3423
9.53535	1.15691	1.3003	52.1402
9.63636	1.15691	1.3003	51.938
9.73737	1.15691	1.3003	51.7357
9.83838	1.15691	1.3003	51.5333
9.93939	1.15691	1.3003	51.3307
10.0404	1.15691	1.3003	51.1278
10.1414	1.15691	1.3003	50.9246
10.2424	1.15691	1.3003	50.7209
10.3434	1.15691	1.3003	50.5166
10.4444	1.15691	1.3003	50.3115
10.5455	1.15691	1.3003	50.1053
10.6465	1.15691	1.3003	49.8976
10.7475	1.15691	1.3003	49.6881
10.8485	1.15691	1.3003	49.4763
10.9495	1.15691	1.3003	49.2616
11.0505	1.15691	1.3003	49.0433
11.1515	1.15691	1.3003	48.8208
11.2525	1.15691	1.3003	48.5935
11.3535	1.15691	1.3003	48.3607
11.4545	1.15691	1.3003	48.122
11.5556	1.15691	1.3003	47.877
11.6566	1.15691	1.3003	47.6255
11.7576	1.15691	1.3003	47.3675
11.8586	1.15691	1.3003	47.1033
11.9596	1.15691	1.3003	46.8333
12.0606	1.15691	1.3003	46.5578
12.1616	1.15691	1.3003	46.2774
12.2626	1.15691	1.3003	45.9926
12.3636	1.15691	1.3003	45.704
12.4646	1.15691	1.3003	45.412
12.5657	1.15691	1.3003	45.117
12.6667	1.15691	1.3003	44.8193
12.7677	1.15691	1.3003	44.5193
12.8687	1.15691	1.3003	44.217
12.9697	1.15691	1.3003	43.9126
13.0707	1.15691	1.3003	43.6061
13.1717	1.15691	1.3003	43.2975
13.2727	1.15691	1.3003	42.9867
13.3737	1.15691	1.3003	42.6733
13.4747	1.15691	1.3003	42.3573
13.5758	1.15691	1.3003	42.0381
13.6768	1.15691	1.3003	41.7154
13.7778	1.15691	1.3003	41.3885
13.8788	1.15691	1.3003	41.0568
13.9798	1.15691	1.3003	40.7193
14.0808	1.15691	1.3003	40.375
14.1818	1.15691	1.3003	40.0227
14.2828	1.15691	1.3003	39.6608
14.3838	1.15691	1.3003	39.2874
14.4848	1.15691	1.3003	38.9001
14.5859	1.15691	1.3003	38.4963
14.6869	1.15691	1.3003	38.0725
14.7879	1.15691	1.3003	37.6243
14.8889	1.15691	1.3003	37.1465
14.9899	1.15691	1.3003	36.6326
15.0909	1.15691	1.3003	36.0745
15.1919	1.15691	1.3003	35.4621
15.2929	1.15691	1.3003	34.7828
15.3939	1.15691	1.3003	34.0207
15.4949	1.15691	1.3003	33.1558
15.596	1.15691	1.3003	32.1624
15.697	1.15691	1.3003	31.0076
15.798	1.15691	1.3003	29.6479
15.899	1.15691	1.3003	28.0204
16	1.15691	1.3003	-inf
6	1.17118	1.35317	58.2818
6.10101	1.17118	1.35317	58.2102
6.20202	1.17118	1.35317	58.1292
6.30303	1.17118	1.35317	58.036
6.40404	1.17118	1.35317	57.9293
6.50505	1.17118	1.35317	57.8089
6.60606	1.17118	1.35317	57.6755
6.70707	1.17118	1.35317	57.5304
6.80808	1.17118	1.35317	57.3751
6.90909	1.17118	1.35317	57.2112
7.0101	1.17118	1.35317	57.04
7.11111	1.17118	1.35317	56.8627
7.21212	1.17118	1.35317	56.6806
7.31313	1.17118	1.35317	56.4946
7.41414	1.17118	1.35317	56.3053
7.51515	1.17118	1.35317	56.1134
7.61616	1.17118	1.35317	55.9195
7.71717	1.17118	1.35317	55.7239
7.81818	1.17118	1.35317	55.527
7.91919	1.17118	1.35317	55.329
8.0202	1.17118	1.35317	55.1302
8.12121	1.17118	1.35317	54.9307
8.22222	1.17118	1.35317	54.7307
8.32323	1.17118	1.35317	54.5303
8.42424	1.17118	1.35317	54.3296
8.52525	1.17118	1.35317	54.1286
8.62626	1.17118	1.35317	53.9273
8.72727	1.17118	1.35317	53.7259
8.82828	1.17118	1.35317	53.5244
8.92929	1.17118	1.35317	53.3227
9.0303	1.17118	1.35317	53.121
9.13131	1.17118	1.35317	52.9192
9.23232	1.17118	1.35317	52.7173
9.33333	1.17118	1.35317	52.5153
9.43434	1.17118	1.35317	52.3132
9.53535	1.17118	1.35317	52.1111
9.63636	1.17118	1.35317	51.9089
9.73737	1.17118	1.35317	51.7065
9.83838	1.17118	1.35317	51.504
9.93939	1.17118	1.35317	51.3012
10.0404	1.17118	1.35317	51.0982
10.1414	1.17118	1.35317	50.8948
10.2424	1.17118	1.35317	50.6909
10.3434	1.17118	1.35317	50.4863
10.4444	1.17118	1.35317	50.2808
10.5455	1.17118	1.35317	50.0741
10.6465	1.17118	1.35317	49.8659
10.7475	1.17118	1.35317	49.6558
10.8485	1.17118	1.35317	49.4432
10.9495	1.17118	1.35317	49.2276
11.0505	1.17118	1.35317	49.0084
11.1515	1.17118	1.35317	48.785
11.2525	1.17118	1.35317	48.5566
11.3535	1.17118	1.35317	48.3228
11.4545	1.17118	1.35317	48.083
11.5556	1.17118	1.35317	47.8369
11.6566	1.17118	1.35317	47.5844
11.7576	1.17118	1.35317	47.3256
11.8586	1.17118	1.35317	47.0606
11.9596	1.17118	1.35317	46.7898
12.0606	1.17118	1.35317	46.5137
12.1616	1.17118	1.35317	46.2327
12.2626	1.17118	1.35317	45.9475
12.3636	1.17118	1.35317	45.6585
12.4646	1.17118	1.35317	45.3662
12.5657	1.17118	1.35317	45.0709
12.6667	1.17118	1.35317	44.773
12.7677	1.17118	1.35317	44.4728
12.8687	1.17118	1.35317	44.1704
12.9697	1.17118	1.35317	43.8659
13.0707	1.17118	1.35317	43.5593
13.1717	1.17118	1.35317	43.2507
13.2727	1.17118	1.35317	42.9398
13.3737	1.17118	1.35317	42.6264
13.4747	1.17118	1.35317	42.3103
13.5758	1.17118	1.35317	41.9911
13.6768	1.17118	1.35317	41.6683
13.7778	1.17118	1.35317	41.3414
13.8788	1.17118	1.35317	41.0097
13.9798	1.17118	1.35317	40.6722
14.0808	1.17118	1.35317	40.3279
14.1818	1.17118	1.35317	39.9756
14.2828	1.17118	1.35317	39.6137
14.3838	1.17118	1.35317	39.2402
14.4848	1.17118	1.35317	38.853
14.5859	1.17118	1.35317	38.4492
14.6869	1.17118	1.35317	38.0254
14.7879	1.17118	1.35317	37.5772
14.8889	1.17118	1.35317	37.0994
14.9899	1.17118	1.35317	36.5855
15.0909	1.17118	1.35317	36.0274
15.1919	1.17118	1.35317	35.415
15.2929	1.17118	1.35317	34.7357
15.3939	1.17118	1.35317	33.9736
15.4949	1.17118	1.35317	33.1087
15.596	1.17118	1.35317	32.1153
15.697	1.17118	1.35317	30.9604
15.798	1.17118	1.35317	29.6008
15.899	1.17118	1.35317	27.9732
16	1.17118	1.35317	-inf
6	1.18544	1.4019	58.2713
6.10101	1.18544	1.4019	58.1957
6.20202	1.18544	1.4019	58.1111
6.30303	1.18544	1.4019	58.015
6.40404	1.18544	1.4019	57.9059
6.50505	1.18544	1.4019	57.7837
6.60606	1.18544	1.4019	57.6489
6.70707	1.18544	1.4019	57.5027
6.80808	1.18544	1.4019	57.3465
6.90909	1.18544	1.4019	57.1819
7.0101	1.18544	1.4019	57.0101
7.11111	1.18544	1.4019	56.8325
7.21212	1.18544	1.4019	56.6501
7.31313	1.18544	1.4019	56.4637
7.41414	1.18544	1.4019	56.2743
7.51515	1.18544	1.4019	56.0822
7.61616	1.18544	1.4019	55.8882
7.71717	1.18544	1.4019	55.6925
7.81818	1.18544	1.4019	55.4955
7.91919	1.18544	1.4019	55.2975
8.0202	1.18544	1.4019	55.0986
8.12121	1.18544	1.4019	54.8991
8.22222	1.18544	1.4019	54.6991
8.32323	1.18544	1.4019	54.4987
8.42424	1.18544	1.4019	54.2979
8.52525	1.18544	1.4019	54.0968
8.62626	1.18544	1.4019	53.8956
8.72727	1.18544	1.4019	53.6942
8.82828	1.18544	1.4019	53.4926
8.92929	1.18544	1.4019	53.291
9.0303	1.18544	1.4019	53.0892
9.13131	1.18544	1.4019	52.8874
9.23232	1.18544	1.4019	52.6854
9.33333	1.18544	1.4019	52.4834
9.43434	1.18544	1.4019	52.2813
9.53535	1.18544	1.4019	52.0792
9.63636	1.18544	1.4019	51.8769
9.73737	1.18544	1.4019	51.6744
9.83838	1.18544	1.4019	51.4718
9.93939	1.18544	1.4019	51.2689
10.0404	1.18544	1.4019	51.0658
10.1414	1.18544	1.4019	50.8621
10.2424	1.18544	1.4019	50.658
10.3434	1.18544	1.4019	50.4531
10.4444	1.18544	1.4019	50.2472
10.5455	1.18544	1.4019	50.0401
10.6465	1.18544	1.4019	49.8314
10.7475	1.18544	1.4019	49.6207
10.8485	1.18544	1.4019	49.4074
10.9495	1.18544	1.4019	49.1911
11.0505	1.18544	1.4019	48.9711
11.1515	1.18544	1.4019	48.7468
11.2525	1.18544	1.4019	48.5175
11.3535	1.18544	1.4019	48.2827
11.4545	1.18544	1.4019	48.042
11.5556	1.18544	1.4019	47.795
11.6566	1.18544	1.4019	47.5416
11.7576	1.18544	1.4019	47.282
11.8586	1.18544	1.4019	47.0163
11.9596	1.18544	1.4019	46.7448
12.0606	1.18544	1.4019	46.4681
12.1616	1.18544	1.4019	46.1867
12.2626	1.18544	1.4019	45.9011
12.3636	1.18544	1.4019	45.6117
12.4646	1.18544	1.4019	45.3191
12.5657	1.18544	1.4019	45.0236
12.6667	1.18544	1.4019	44.7256
12.7677	1.18544	1.4019	44.4252
12.8687	1.18544	1.4019	44.1227
12.9697	1.18544	1.4019	43.8181
13.0707	1.18544	1.4019	43.5114
13.1717	1.18544	1.4019	43.2027
13.2727	1.18544	1.4019	42.8917
13.3737	1.18544	1.4019	42.5783
13.4747	1.18544	1.4019	42.2622
13.5758	1.18544	1.4019	41.943
13.6768	1.18544	1.4019	41.6202
13.7778	1.18544	1.4019	41.2933
13.8788	1.18544	1.4019	40.9615
13.9798	1.18544	1.4019	40.624
14.0808	1.18544	1.4019	40.2797
14.1818	1.18544	1.4019	39.9274
14.2828	1.18544	1.4019	39.5655
14.3838	1.18544	1.4019	39.1921
14.4848	1.18544	1.4019	38.8048
14.5859	1.18544	1.4019	38.401
14.6869	1.18544	1.4019	37.9772
14.7879	1.18544	1.4019	37.529
14.8889	1.18544	1.4019	37.0512
14.9899	1.18544	1.4019	36.5373
15.0909	1.18544	1.4019	35.9792
15.1919	1.18544	1.4019	35.3668
15.2929	1.18544	1.4019	34.6875
15.3939	1.18544	1.4019	33.9254
15.4949	1.18544	1.4019	33.0605
15.596	1.18544	1.4019	32.0671
15.697	1.18544	1.4019	30.9122
15.798	1.18544	1.4019	29.5525
15.899	1.18544	1.4019	27.925
16	1.18544	1.4019	-inf
6	1.19971	1.45248	58.2597
6.10101	1.19971	1.45248	58.1807
6.20202	1.19971	1.45248	58.0932
6.30303	1.19971	1.45248	57.9947
6.40404	1.19971	1.45248	57.8837
6.50505	1.19971	1.45248	57.7599
6.60606	1.19971	1.45248	57.6239
6.70707	1.19971	1.45248	57.4767
6.80808	1.19971	1.45248	57.3199
6.90909	1.19971	1.45248	57.1547
7.0101	1.19971	1.45248	56.9825
7.11111	1.19971	1.45248	56.8045
7.21212	1.19971	1.45248	56.6218
7.31313	1.19971	1.45248	56.4352
7.41414	1.19971	1.45248	56.2456
7.51515	1.19971	1.45248	56.0534
7.61616	1.19971	1.45248	55.8593
7.71717	1.19971	1.45248	55.6635
7.81818	1.19971	1.45248	55.4664
7.91919	1.19971	1.45248	55.2684
8.0202	1.19971	1.45248	55.0695
8.12121	1.19971	1.45248	54.8699
8.22222	1.19971	1.45248	54.6699
8.32323	1.19971	1.45248	54.4694
8.42424	1.19971	1.45248	54.2686
8.52525	1.19971	1.45248	54.0676
8.62626	1.19971	1.45248	53.8663
8.72727	1.19971	1.45248	53.6649
8.82828	1.19971	1.45248	53.4633
8.92929	1.19971	1.45248	53.2617
9.0303	1.19971	1.45248	53.0599
9.13131	1.19971	1.45248	52.858
9.23232	1.19971	1.45248	52.6561
9.33333	1.19971	1.45248	52.454
9.43434	1.19971	1.45248	52.2519
9.53535	1.19971	1.45248	52.0497
9.63636	1.19971	1.45248	51.8473
9.73737	1.19971	1.45248	51.6448
9.83838	1.19971	1.45248	51.4421
9.93939	1.19971	1.45248	51.2391
10.0404	1.19971	1.45248	51.0358
10.1414	1.19971	1.45248	50.832
10.2424	1.19971	1.45248	50.6276
10.3434	1.19971	1.45248	50.4224
10.4444	1.19971	1.45248	50.2162
10.5455	1.19971	1.45248	50.0087
10.6465	1.19971	1.45248	49.7996
10.7475	1.19971	1.45248	49.5883
10.8485	1.19971	1.45248	49.3744
10.9495	1.19971	1.45248	49.1574
11.0505	1.19971	1.45248	48.9367
11.1515	1.19971	1.45248	48.7115
11.2525	1.19971	1.45248	48.4814
11.3535	1.19971	1.45248	48.2457
11.4545	1.19971	1.45248	48.0041
11.5556	1.19971	1.45248	47.7563
11.6566	1.19971	1.45248	47.5022
11.7576	1.19971	1.45248	47.2418
11.8586	1.19971	1.45248	46.9754
11.9596	1.19971	1.45248	46.7034
12.0606	1.19971	1.45248	46.4262
12.1616	1.19971	1.45248	46.1443
12.2626	1.19971	1.45248	45.8583
12.3636	1.19971	1.45248	45.5687
12.4646	1.19971	1.45248	45.2758
12.5657	1.19971	1.45248	44.9801
12.6667	1.19971	1.45248	44.6818
12.7677	1.19971	1.45248	44.3813
12.8687	1.19971	1.45248	44.0787
12.9697	1.19971	1.45248	43.774
13.0707	1.19971	1.45248	43.4673
13.1717	1.19971	1.45248	43.1585
13.2727	1.19971	1.45248	42.8475
13.3737	1.19971	1.45248	42.534
13.4747	1.19971	1.45248	42.2179
13.5758	1.19971	1.45248	41.8986
13.6768	1.19971	1.45248	41.5758
13.7778	1.19971	1.45248	41.2489
13.8788	1.19971	1.45248	40.9171
13.9798	1.19971	1.45248	40.5796
14.0808	1.19971	1.45248	40.2353
14.1818	1.19971	1.45248	39.883
14.2828	1.19971	1.45248	39.521
14.3838	1.19971	1.45248	39.1476
14.4848	1.19971	1.45248	38.7604
14.5859	1.19971	1.45248	38.3566
14.6869	1.19971	1.45248	37.9327
14.7879	1.19971	1.45248	37.4845
14.8889	1.19971	1.45248	37.0067
14.9899	1.19971	1.45248	36.4929
15.0909	1.19971	1.45248	35.9348
15.1919	1.19971	1.45248	35.3224
15.2929	1.19971	1.45248	34.643
15.3939	1.19971	1.45248	33.881
15.4949	1.19971	1.45248	33.016
15.596	1.19971	1.45248	32.0227
15.697	1.19971	1.45248	30.8678
15.798	1.19971	1.45248	29.5081
15.899	1.19971	1.45248	27.8806
16	1.19971	1.45248	-inf
6	1.21397	1.50549	58.248
6.10101	1.21397	1.50549	58.1662
6.20202	1.21397	1.50549	58.0763
6.30303	1.21397	1.50549	57.9758
6.40404	1.21397	1.50549	57.8632
6.50505	1.21397	1.50549	57.7381
6.60606	1.21397	1.50549	57.601
6.70707	1.21397	1.50549	57.4531
6.80808	1.21397	1.50549	57.2956
6.90909	1.21397	1.50549	57.1299
7.0101	1.21397	1.50549	56.9573
7.11111	1.21397	1.50549	56.7791
7.21212	1.21397	1.50549	56.5961
7.31313	1.21397	1.50549	56.4094
7.41414	1.21397	1.50549	56.2196
7.51515	1.21397	1.50549	56.0273
7.61616	1.21397	1.50549	55.8331
7.71717	1.21397	1.50549	55.6372
7.81818	1.21397	1.50549	55.4401
7.91919	1.21397	1.50549	55.242
8.0202	1.21397	1.50549	55.0431
8.12121	1.21397	1.50549	54.8435
8.22222	1.21397	1.50549	54.6435
8.32323	1.21397	1.50549	54.443
8.42424	1.21397	1.50549	54.2422
8.52525	1.21397	1.50549	54.0411
8.62626	1.21397	1.50549	53.8398
8.72727	1.21397	1.50549	53.6384
8.82828	1.21397	1.50549	53.4368
8.92929	1.21397	1.50549	53.2351
9.0303	1.21397	1.50549	53.0333
9.13131	1.21397	1.50549	52.8314
9.23232	1.21397	1.50549	52.6295
9.33333	1.21397	1.50549	52.4274
9.43434	1.21397	1.50549	52.2252
9.53535	1.21397	1.50549	52.023
9.63636	1.21397	1.50549	51.8206
9.73737	1.21397	1.50549	51.618
9.83838	1.21397	1.50549	51.4152
9.93939	1.21397	1.50549	51.2121
10.0404	1.21397	1.50549	51.0086
10.1414	1.21397	1.50549	50.8046
10.2424	1.21397	1.50549	50.6
10.3434	1.21397	1.50549	50.3946
10.4444	1.21397	1.50549	50.1881
10.5455	1.21397	1.50549	49.9802
10.6465	1.21397	1.50549	49.7706
10.7475	1.21397	1.50549	49.5589
10.8485	1.21397	1.50549	49.3444
10.9495	1.21397	1.50549	49.1268
11.0505	1.21397	1.50549	48.9053
11.1515	1.21397	1.50549	48.6795
11.2525	1.21397	1.50549	48.4485
11.3535	1.21397	1.50549	48.2121
11.4545	1.21397	1.50549	47.9697
11.5556	1.21397	1.50549	47.7211
11.6566	1.21397	1.50549	47.4662
11.7576	1.21397	1.50549	47.2051
11.8586	1.21397	1.50549	46.9381
11.9596	1.21397	1.50549	46.6655
12.0606	1.21397	1.50549	46.3878
12.1616	1.21397	1.50549	46.1056
12.2626	1.21397	1.50549	45.8192
12.3636	1.21397	1.50549	45.5292
12.4646	1.21397	1.50549	45.2361
12.5657	1.21397	1.50549	44.9402
12.6667	1.21397	1.50549	44.6418
12.7677	1.21397	1.50549	44.3411
12.8687	1.21397	1.50549	44.0384
12.9697	1.21397	1.50549	43.7336
13.0707	1.21397	1.50549	43.4268
13.1717	1.21397	1.50549	43.1179
13.2727	1.21397	1.50549	42.8069
13.3737	1.21397	1.50549	42.4934
13.4747	1.21397	1.50549	42.1772
13.5758	1.21397	1.50549	41.858
13.6768	1.21397	1.50549	41.5351
13.7778	1.21397	1.50549	41.2082
13.8788	1.21397	1.50549	40.8764
13.9798	1.21397	1.50549	40.5389
14.0808	1.21397	1.50549	40.1946
14.1818	1.21397	1.50549	39.8423
14.2828	1.21397	1.50549	39.4803
14.3838	1.21397	1.50549	39.1069
14.4848	1.21397	1.50549	38.7197
14.5859	1.21397	1.50549	38.3158
14.6869	1.21397	1.50549	37.892
14.7879	1.21397	1.50549	37.4438
14.8889	1.21397	1.50549	36.966
14.9899	1.21397	1.50549	36.4521
15.0909	1.21397	1.50549	35.894
15.1919	1.21397	1.50549	35.2816
15.2929	1.21397	1.50549	34.6023
15.3939	1.21397	1.50549	33.8402
15.4949	1.21397	1.50549	32.9753
15.596	1.21397	1.50549	31.9819
15.697	1.21397	1.50549	30.827
15.798	1.21397	1.50549	29.4674
15.899	1.21397	1.50549	27.8398
16	1.21397	1.50549	-inf
6	1.22824	1.5506	58.2287
6.10101	1.22824	1.5506	58.1444
6.20202	1.22824	1.5506	58.0522
6.30303	1.22824	1.5506	57.9498
6.40404	1.22824	1.5506	57.8357
6.50505	1.22824	1.5506	57.7094
6.60606	1.22824	1.5506	57.5714
6.70707	1.22824	1.5506	57.4227
6.80808	1.22824	1.5506	57.2646
6.90909	1.22824	1.5506	57.0984
7.0101	1.22824	1.5506	56.9255
7.11111	1.22824	1.5506	56.747
7.21212	1.22824	1.5506	56.5638
7.31313	1.22824	1.5506	56.3769
7.41414	1.22824	1.5506	56.187
7.51515	1.22824	1.5506	55.9946
7.61616	1.22824	1.5506	55.8003
7.71717	1.22824	1.5506	55.6044
7.81818	1.22824	1.5506	55.4072
7.91919	1.22824	1.5506	55.2091
8.0202	1.22824	1.5506	55.0101
8.12121	1.22824	1.5506	54.8105
8.22222	1.22824	1.5506	54.6104
8.32323	1.22824	1.5506	54.4099
8.42424	1.22824	1.5506	54.2091
8.52525	1.22824	1.5506	54.008
8.62626	1.22824	1.5506	53.8067
8.72727	1.22824	1.5506	53.6053
8.82828	1.22824	1.5506	53.4037
8.92929	1.22824	1.5506	53.202
9.0303	1.22824	1.5506	53.0002
9.13131	1.22824	1.5506	52.7983
9.23232	1.22824	1.5506	52.5963
9.33333	1.22824	1.5506	52.3942
9.43434	1.22824	1.5506	52.192
9.53535	1.22824	1.5506	51.9897
9.63636	1.22824	1.5506	51.7872
9.73737	1.22824	1.5506	51.5845
9.83838	1.22824	1.5506	51.3816
9.93939	1.22824	1.5506	51.1784
10.0404	1.22824	1.5506	50.9748
10.1414	1.22824	1.5506	50.7707
10.2424	1.22824	1.5506	50.5659
10.3434	1.22824	1.5506	50.3602
10.4444	1.22824	1.5506	50.1534
10.5455	1.22824	1.5506	49.9452
10.6465	1.22824	1.5506	49.7352
10.7475	1.22824	1.5506	49.5229
10.8485	1.22824	1.5506	49.308
10.9495	1.22824	1.5506	49.0898
11.0505	1.22824	1.5506	48.8677
11.1515	1.22824	1.5506	48.6411
11.2525	1.22824	1.5506	48.4095
11.3535	1.22824	1.5506	48.1723
11.4545	1.22824	1.5506	47.9292
11.5556	1.22824	1.5506	47.6799
11.6566	1.22824	1.5506	47.4243
11.7576	1.22824	1.5506	47.1626
11.8586	1.22824	1.5506	46.895
11.9596	1.22824	1.5506	46.6219
12.0606	1.22824	1.5506	46.3438
12.1616	1.22824	1.5506	46.0611
12.2626	1.22824	1.5506	45.7744
12.3636	1.22824	1.5506	45.4842
12.4646	1.22824	1.5506	45.1908
12.5657	1.22824	1.5506	44.8947
12.6667	1.22824	1.5506	44.5962
12.7677	1.22824	1.5506	44.2954
12.8687	1.22824	1.5506	43.9926
12.9697	1.22824	1.5506	43.6877
13.0707	1.22824	1.5506	43.3809
13.1717	1.22824	1.5506	43.072
13.2727	1.22824	1.5506	42.7609
13.3737	1.22824	1.5506	42.4473
13.4747	1.22824	1.5506	42.1311
13.5758	1.22824	1.5506	41.8119
13.6768	1.22824	1.5506	41.489
13.7778	1.22824	1.5506	41.1621
13.8788	1.22824	1.5506	40.8303
13.9798	1.22824	1.5506	40.4927
14.0808	1.22824	1.5506	40.1484
14.1818	1.22824	1.5506	39.7961
14.2828	1.22824	1.5506	39.4342
14.3838	1.22824	1.5506	39.0607
14.4848	1.22824	1.5506	38.6735
14.5859	1.22824	1.5506	38.2697
14.6869	1.22824	1.5506	37.8458
14.7879	1.22824	1.5506	37.3976
14.8889	1.22824	1.5506	36.9198
14.9899	1.22824	1.5506	36.4059
15.0909	1.22824	1.5506	35.8478
15.1919	1.22824	1.5506	35.2354
15.2929	1.22824	1.5506	34.5561
15.3939	1.22824	1.5506	33.794
15.4949	1.22824	1.5506	32.9291
15.596	1.22824	1.5506	31.9358
15.697	1.22824	1.5506	30.7809
15.798	1.22824	1.5506	29.4212
15.899	1.22824	1.5506	27.7937
16	1.22824	1.5506	-inf
6	1.2425	1.59896	58.2105
6.10101	1.2425	1.59896	58.124
6.20202	1.2425	1.59896	58.03
6.30303	1.2425	1.59896	57.926
6.40404	1.2425	1.59896	57.8106
6.50505	1.2425	1.59896	57.6832
6.60606	1.2425	1.59896	57.5444
6.70707	1.2425	1.59896	57.3951
6.80808	1.2425	1.59896	57.2366
6.90909	1.2425	1.59896	57.07
7.0101	1.2425	1.59896	56.8968
7.11111	1.2425	1.59896	56.718
7.21212	1.2425	1.59896	56.5347
7.31313	1.2425	1.59896	56.3476
7.41414	1.2425	1.59896	56.1576
7.51515	1.2425	1.59896	55.9651
7.61616	1.2425	1.59896	55.7707
7.71717	1.2425	1.59896	55.5748
7.81818	1.2425	1.59896	55.3776
7.91919	1.2425	1.59896	55.1794
8.0202	1.2425	1.59896	54.9804
8.12121	1.2425	1.59896	54.7808
8.22222	1.2425	1.59896	54.5806
8.32323	1.2425	1.59896	54.3801
8.42424	1.2425	1.59896	54.1793
8.52525	1.2425	1.59896	53.9782
8.62626	1.2425	1.59896	53.7769
8.72727	1.2425	1.59896	53.5754
8.82828	1.2425	1.59896	53.3738
8.92929	1.2425	1.59896	53.1721
9.0303	1.2425	1.59896	52.9703
9.13131	1.2425	1.59896	52.7684
9.23232	1.2425	1.59896	52.5663
9.33333	1.2425	1.59896	52.3642
9.43434	1.2425	1.59896	52.162
9.53535	1.2425	1.59896	51.9596
9.63636	1.2425	1.59896	51.7571
9.73737	1.2425	1.59896	51.5544
9.83838	1.2425	1.59896	51.3514
9.93939	1.2425	1.59896	51.1481
10.0404	1.2425	1.59896	50.9443
10.1414	1.2425	1.59896	50.74
10.2424	1.2425	1.59896	50.535
10.3434	1.2425	1.59896	50.3291
10.4444	1.2425	1.59896	50.1221
10.5455	1.2425	1.59896	49.9135
10.6465	1.2425	1.59896	49.7031
10.7475	1.2425	1.59896	49.4904
10.8485	1.2425	1.59896	49.275
10.9495	1.2425	1.59896	49.0562
11.0505	1.2425	1.59896	48.8335
11.1515	1.2425	1.59896	48.6063
11.2525	1.2425	1.59896	48.374
11.3535	1.2425	1.59896	48.1361
11.4545	1.2425	1.59896	47.8923
11.5556	1.2425	1.59896	47.6423
11.6566	1.2425	1.59896	47.3861
11.7576	1.2425	1.59896	47.1238
11.8586	1.2425	1.59896	46.8557
11.9596	1.2425	1.59896	46.5821
12.0606	1.2425	1.59896	46.3035
12.1616	1.2425	1.59896	46.0205
12.2626	1.2425	1.59896	45.7335
12.3636	1.2425	1.59896	45.443
12.4646	1.2425	1.59896	45.1494
12.5657	1.2425	1.59896	44.8531
12.6667	1.2425	1.59896	44.5544
12.7677	1.2425	1.59896	44.2535
12.8687	1.2425	1.59896	43.9506
12.9697	1.2425	1.59896	43.6456
13.0707	1.2425	1.59896	43.3387
13.1717	1.2425	1.59896	43.0298
13.2727	1.2425	1.59896	42.7186
13.3737	1.2425	1.59896	42.4051
13.4747	1.2425	1.59896	42.0889
13.5758	1.2425	1.59896	41.7696
13.6768	1.2425	1.59896	41.4467
13.7778	1.2425	1.59896	41.1197
13.8788	1.2425	1.59896	40.7879
13.9798	1.2425	1.59896	40.4504
14.0808	1.2425	1.59896	40.1061
14.1818	1.2425	1.59896	39.7537
14.2828	1.2425	1.59896	39.3918
14.3838	1.2425	1.59896	39.0184
14.4848	1.2425	1.59896	38.6311
14.5859	1.2425	1.59896	38.2273
14.6869	1.2425	1.59896	37.8034
14.7879	1.2425	1.59896	37.3552
14.8889	1.2425	1.59896	36.8775
14.9899	1.2425	1.59896	36.3636
15.0909	1.2425	1.59896	35.8055
15.1919	1.2425	1.59896	35.1931
15.2929	1.2425	1.59896	34.5138
15.3939	1.2425	1.59896	33.7517
15.4949	1.2425	1.59896	32.8867
15.596	1.2425	1.59896	31.8934
15.697	1.2425	1.59896	30.7385
15.798	1.2425	1.59896	29.3788
15.899	1.2425	1.59896	27.7513
16	1.2425	1.59896	-inf
6	1.25676	1.6455	58.1897
6.10101	1.25676	1.6455	58.1013
6.20202	1.25676	1.6455	58.0056
6.30303	1.25676	1.6455	57.9002
6.40404	1.25676	1.6455	57.7837
6.50505	1.25676	1.6455	57.6554
6.60606	1.25676	1.6455	57.5159
6.70707	1.25676	1.6455	57.366
6.80808	1.25676	1.6455	57.207
6.90909	1.25676	1.6455	57.0401
7.0101	1.25676	1.6455	56.8666
7.11111	1.25676	1.6455	56.6876
7.21212	1.25676	1.6455	56.5041
7.31313	1.25676	1.6455	56.317
7.41414	1.25676	1.6455	56.1268
7.51515	1.25676	1.6455	55.9343
7.61616	1.25676	1.6455	55.7398
7.71717	1.25676	1.6455	55.5438
7.81818	1.25676	1.6455	55.3465
7.91919	1.25676	1.6455	55.1483
8.0202	1.25676	1.6455	54.9493
8.12121	1.25676	1.6455	54.7496
8.22222	1.25676	1.6455	54.5495
8.32323	1.25676	1.6455	54.349
8.42424	1.25676	1.6455	54.1481
8.52525	1.25676	1.6455	53.947
8.62626	1.25676	1.6455	53.7457
8.72727	1.25676	1.6455	53.5443
8.82828	1.25676	1.6455	53.3426
8.92929	1.25676	1.6455	53.1409
9.0303	1.25676	1.6455	52.9391
9.13131	1.25676	1.6455	52.7371
9.23232	1.25676	1.6455	52.5351
9.33333	1.25676	1.6455	52.3329
9.43434	1.25676	1.6455	52.1307
9.53535	1.25676	1.6455	51.9282
9.63636	1.25676	1.6455	51.7257
9.73737	1.25676	1.6455	51.5229
9.83838	1.25676	1.6455	51.3198
9.93939	1.25676	1.6455	51.1164
10.0404	1.25676	1.6455	50.9125
10.1414	1.25676	1.6455	50.7081
10.2424	1.25676	1.6455	50.5029
10.3434	1.25676	1.6455	50.2967
10.4444	1.25676	1.6455	50.0894
10.5455	1.25676	1.6455	49.8805
10.6465	1.25676	1.6455	49.6698
10.7475	1.25676	1.6455	49.4567
10.8485	1.25676	1.6455	49.2408
10.9495	1.25676	1.6455	49.0215
11.0505	1.25676	1.6455	48.7982
11.1515	1.25676	1.6455	48.5703
11.2525	1.25676	1.6455	48.3374
11.3535	1.25676	1.6455	48.0989
11.4545	1.25676	1.6455	47.8544
11.5556	1.25676	1.6455	47.6038
11.6566	1.25676	1.6455	47.347
11.7576	1.25676	1.6455	47.0841
11.8586	1.25676	1.6455	46.8154
11.9596	1.25676	1.6455	46.5414
12.0606	1.25676	1.6455	46.2624
12.1616	1.25676	1.6455	45.979
12.2626	1.25676	1.6455	45.6917
12.3636	1.25676	1.6455	45.401
12.4646	1.25676	1.6455	45.1072
12.5657	1.25676	1.6455	44.8107
12.6667	1.25676	1.6455	44.5119
12.7677	1.25676	1.6455	44.2109
12.8687	1.25676	1.6455	43.9078
12.9697	1.25676	1.6455	43.6028
13.0707	1.25676	1.6455	43.2959
13.1717	1.25676	1.6455	42.9869
13.2727	1.25676	1.6455	42.6757
13.3737	1.25676	1.6455	42.3621
13.4747	1.25676	1.6455	42.0459
13.5758	1.25676	1.6455	41.7265
13.6768	1.25676	1.6455	41.4037
13.7778	1.25676	1.6455	41.0767
13.8788	1.25676	1.6455	40.7449
13.9798	1.25676	1.6455	40.4073
14.0808	1.25676	1.6455	40.063
14.1818	1.25676	1.6455	39.7107
14.2828	1.25676	1.6455	39.3487
14.3838	1.25676	1.6455	38.9753
14.4848	1.25676	1.6455	38.5881
14.5859	1.25676	1.6455	38.1842
14.6869	1.25676	1.6455	37.7604
14.7879	1.25676	1.6455	37.3122
14.8889	1.25676	1.6455	36.8344
14.9899	1.25676	1.6455	36.3205
15.0909	1.25676	1.6455	35.7624
15.1919	1.25676	1.6455	35.15
15.2929	1.25676	1.6455	34.4707
15.3939	1.25676	1.6455	33.7086
15.4949	1.25676	1.6455	32.8437
15.596	1.25676	1.6455	31.8503
15.697	1.25676	1.6455	30.6954
15.798	1.25676	1.6455	29.3357
15.899	1.25676	1.6455	27.7082
16	1.25676	1.6455	-inf
6	1.27103	1.69049	58.1666
6.10101	1.27103	1.69049	58.0766
6.20202	1.27103	1.69049	57.9794
6.30303	1.27103	1.69049	57.8727
6.40404	1.27103	1.69049	57.7551
6.50505	1.27103	1.69049	57.626
6.60606	1.27103	1.69049	57.4859
6.70707	1.27103	1.69049	57.3355
6.80808	1.27103	1.69049	57.1761
6.90909	1.27103	1.69049	57.0089
7.0101	1.27103	1.69049	56.8351
7.11111	1.27103	1.69049	56.656
7.21212	1.27103	1.69049	56.4723
7.31313	1.27103	1.69049	56.285
7.41414	1.27103	1.69049	56.0948
7.51515	1.27103	1.69049	55.9022
7.61616	1.27103	1.69049	55.7076
7.71717	1.27103	1.69049	55.5116
7.81818	1.27103	1.69049	55.3143
7.91919	1.27103	1.69049	55.116
8.0202	1.27103	1.69049	54.917
8.12121	1.27103	1.69049	54.7173
8.22222	1.27103	1.69049	54.5172
8.32323	1.27103	1.69049	54.3166
8.42424	1.27103	1.69049	54.1158
8.52525	1.27103	1.69049	53.9147
8.62626	1.27103	1.69049	53.7133
8.72727	1.27103	1.69049	53.5119
8.82828	1.27103	1.69049	53.3102
8.92929	1.27103	1.69049	53.1085
9.0303	1.27103	1.69049	52.9066
9.13131	1.27103	1.69049	52.7047
9.23232	1.27103	1.69049	52.5026
9.33333	1.27103	1.69049	52.3004
9.43434	1.27103	1.69049	52.0981
9.53535	1.27103	1.69049	51.8957
9.63636	1.27103	1.69049	51.693
9.73737	1.27103	1.69049	51.4902
9.83838	1.27103	1.69049	51.287
9.93939	1.27103	1.69049	51.0835
10.0404	1.27103	1.69049	50.8795
10.1414	1.27103	1.69049	50.6749
10.2424	1.27103	1.69049	50.4696
10.3434	1.27103	1.69049	50.2632
10.4444	1.27103	1.69049	50.0556
10.5455	1.27103	1.69049	49.8464
10.6465	1.27103	1.69049	49.6353
10.7475	1.27103	1.69049	49.4219
10.8485	1.27103	1.69049	49.2055
10.9495	1.27103	1.69049	48.9857
11.0505	1.27103	1.69049	48.7619
11.1515	1.27103	1.69049	48.5334
11.2525	1.27103	1.69049	48.2999
11.3535	1.27103	1.69049	48.0607
11.4545	1.27103	1.69049	47.8156
11.5556	1.27103	1.69049	47.5644
11.6566	1.27103	1.69049	47.307
11.7576	1.27103	1.69049	47.0436
11.8586	1.27103	1.69049	46.7744
11.9596	1.27103	1.69049	46.4999
12.0606	1.27103	1.69049	46.2206
12.1616	1.27103	1.69049	45.9368
12.2626	1.27103	1.69049	45.6493
12.3636	1.27103	1.69049	45.3583
12.4646	1.27103	1.69049	45.0643
12.5657	1.27103	1.69049	44.7677
12.6667	1.27103	1.69049	44.4687
12.7677	1.27103	1.69049	44.1676
12.8687	1.27103	1.69049	43.8645
12.9697	1.27103	1.69049	43.5594
13.0707	1.27103	1.69049	43.2524
13.1717	1.27103	1.69049	42.9433
13.2727	1.27103	1.69049	42.6321
13.3737	1.27103	1.69049	42.3185
13.4747	1.27103	1.69049	42.0022
13.5758	1.27103	1.69049	41.6829
13.6768	1.27103	1.69049	41.36
13.7778	1.27103	1.69049	41.033
13.8788	1.27103	1.69049	40.7012
13.9798	1.27103	1.69049	40.3636
14.0808	1.27103	1.69049	40.0193
14.1818	1.27103	1.69049	39.6669
14.2828	1.27103	1.69049	39.305
14.3838	1.27103	1.69049	38.9316
14.4848	1.27103	1.69049	38.5443
14.5859	1.27103	1.69049	38.1405
14.6869	1.27103	1.69049	37.7166
14.7879	1.27103	1.69049	37.2684
14.8889	1.27103	1.69049	36.7906
14.9899	1.27103	1.69049	36.2767
15.0909	1.27103	1.69049	35.7186
15.1919	1.27103	1.69049	35.1063
15.2929	1.27103	1.69049	34.4269
15.3939	1.27103	1.69049	33.6648
15.4949	1.27103	1.69049	32.7999
15.596	1.27103	1.69049	31.8066
15.697	1.27103	1.69049	30.6517
15.798	1.27103	1.69049	29.292
15.899	1.27103	1.69049	27.6645
16	1.27103	1.69049	-inf
6	1.28529	1.73419	58.1416
6.10101	1.28529	1.73419	58.05
6.20202	1.28529	1.73419	57.9515
6.30303	1.28529	1.73419	57.8437
6.40404	1.28529	1.73419	57.7251
6.50505	1.28529	1.73419	57.5953
6.60606	1.28529	1.73419	57.4546
6.70707	1.28529	1.73419	57.3037
6.80808	1.28529	1.73419	57.1439
6.90909	1.28529	1.73419	56.9765
7.0101	1.28529	1.73419	56.8025
7.11111	1.28529	1.73419	56.6232
7.21212	1.28529	1.73419	56.4394
7.31313	1.28529	1.73419	56.252
7.41414	1.28529	1.73419	56.0616
7.51515	1.28529	1.73419	55.869
7.61616	1.28529	1.73419	55.6744
7.71717	1.28529	1.73419	55.4783
7.81818	1.28529	1.73419	55.281
7.91919	1.28529	1.73419	55.0827
8.0202	1.28529	1.73419	54.8836
8.12121	1.28529	1.73419	54.6839
8.22222	1.28529	1.73419	54.4838
8.32323	1.28529	1.73419	54.2832
8.42424	1.28529	1.73419	54.0823
8.52525	1.28529	1.73419	53.8812
8.62626	1.28529	1.73419	53.6799
8.72727	1.28529	1.73419	53.4784
8.82828	1.28529	1.73419	53.2768
8.92929	1.28529	1.73419	53.075
9.0303	1.28529	1.73419	52.8731
9.13131	1.28529	1.73419	52.6711
9.23232	1.28529	1.73419	52.469
9.33333	1.28529	1.73419	52.2668
9.43434	1.28529	1.73419	52.0645
9.53535	1.28529	1.73419	51.862
9.63636	1.28529	1.73419	51.6593
9.73737	1.28529	1.73419	51.4564
9.83838	1.28529	1.73419	51.2532
9.93939	1.28529	1.73419	51.0496
10.0404	1.28529	1.73419	50.8455
10.1414	1.28529	1.73419	50.6407
10.2424	1.28529	1.73419	50.4352
10.3434	1.28529	1.73419	50.2286
10.4444	1.28529	1.73419	50.0208
10.5455	1.28529	1.73419	49.8113
10.6465	1.28529	1.73419	49.5999
10.7475	1.28529	1.73419	49.386
10.8485	1.28529	1.73419	49.1692
10.9495	1.28529	1.73419	48.9489
11.0505	1.28529	1.73419	48.7246
11.1515	1.28529	1.73419	48.4956
11.2525	1.28529	1.73419	48.2615
11.3535	1.28529	1.73419	48.0217
11.4545	1.28529	1.73419	47.776
11.5556	1.28529	1.73419	47.5242
11.6566	1.28529	1.73419	47.2662
11.7576	1.28529	1.73419	47.0023
11.8586	1.28529	1.73419	46.7327
11.9596	1.28529	1.73419	46.4578
12.0606	1.28529	1.73419	46.178
12.1616	1.28529	1.73419	45.894
12.2626	1.28529	1.73419	45.6061
12.3636	1.28529	1.73419	45.3149
12.4646	1.28529	1.73419	45.0207
12.5657	1.28529	1.73419	44.724
12.6667	1.28529	1.73419	44.4249
12.7677	1.28529	1.73419	44.1236
12.8687	1.28529	1.73419	43.8204
12.9697	1.28529	1.73419	43.5153
13.0707	1.28529	1.73419	43.2082
13.1717	1.28529	1.73419	42.8991
13.2727	1.28529	1.73419	42.5879
13.3737	1.28529	1.73419	42.2742
13.4747	1.28529	1.73419	41.9579
13.5758	1.28529	1.73419	41.6386
13.6768	1.28529	1.73419	41.3157
13.7778	1.28529	1.73419	40.9887
13.8788	1.28529	1.73419	40.6568
13.9798	1.28529	1.73419	40.3193
14.0808	1.28529	1.73419	39.975
14.1818	1.28529	1.73419	39.6226
14.2828	1.28529	1.73419	39.2606
14.3838	1.28529	1.73419	38.8872
14.4848	1.28529	1.73419	38.5
14.5859	1.28529	1.73419	38.0962
14.6869	1.28529	1.73419	37.6723
14.7879	1.28529	1.73419	37.2241
14.8889	1.28529	1.73419	36.7463
14.9899	1.28529	1.73419	36.2324
15.0909	1.28529	1.73419	35.6743
15.1919	1.28529	1.73419	35.0619
15.2929	1.28529	1.73419	34.3826
15.3939	1.28529	1.73419	33.6205
15.4949	1.28529	1.73419	32.7556
15.596	1.28529	1.73419	31.7622
15.697	1.28529	1.73419	30.6073
15.798	1.28529	1.73419	29.2476
15.899	1.28529	1.73419	27.6201
16	1.28529	1.73419	-inf
6	1.29956	1.78218	58.1189
6.10101	1.29956	1.78218	58.0261
6.20202	1.29956	1.78218	57.9264
6.30303	1.29956	1.78218	57.8177
6.40404	1.29956	1.78218	57.6984
6.50505	1.29956	1.78218	57.5679
6.60606	1.29956	1.78218	57.4266
6.70707	1.29956	1.78218	57.2754
6.80808	1.29956	1.78218	57.1153
6.90909	1.29956	1.78218	56.9476
7.0101	1.29956	1.78218	56.7734
7.11111	1.29956	1.78218	56.5939
7.21212	1.29956	1.78218	56.41
7.31313	1.29956	1.78218	56.2226
7.41414	1.29956	1.78218	56.0322
7.51515	1.29956	1.78218	55.8394
7.61616	1.29956	1.78218	55.6448
7.71717	1.29956	1.78218	55.4486
7.81818	1.29956	1.78218	55.2513
7.91919	1.29956	1.78218	55.053
8.0202	1.29956	1.78218	54.8539
8.12121	1.29956	1.78218	54.6542
8.22222	1.29956	1.78218	54.454
8.32323	1.29956	1.78218	54.2535
8.42424	1.29956	1.78218	54.0526
8.52525	1.29956	1.78218	53.8515
8.62626	1.29956	1.78218	53.6501
8.72727	1.29956	1.78218	53.4486
8.82828	1.29956	1.78218	53.247
8.92929	1.29956	1.78218	53.0452
9.0303	1.29956	1.78218	52.8433
9.13131	1.29956	1.78218	52.6413
9.23232	1.29956	1.78218	52.4392
9.33333	1.29956	1.78218	52.237
9.43434	1.29956	1.78218	52.0346
9.53535	1.29956	1.78218	51.8321
9.63636	1.29956	1.78218	51.6293
9.73737	1.29956	1.78218	51.4263
9.83838	1.29956	1.78218	51.223
9.93939	1.29956	1.78218	51.0193
10.0404	1.29956	1.78218	50.8151
10.1414	1.29956	1.78218	50.6102
10.2424	1.29956	1.78218	50.4045
10.3434	1.29956	1.78218	50.1978
10.4444	1.29956	1.78218	49.9897
10.5455	1.29956	1.78218	49.78
10.6465	1.29956	1.78218	49.5682
10.7475	1.29956	1.78218	49.354
10.8485	1.29956	1.78218	49.1367
10.9495	1.29956	1.78218	48.916
11.0505	1.29956	1.78218	48.6911
11.1515	1.29956	1.78218	48.4616
11.2525	1.29956	1.78218	48.2269
11.3535	1.29956	1.78218	47.9865
11.4545	1.29956	1.78218	47.7402
11.5556	1.29956	1.78218	47.4878
11.6566	1.29956	1.78218	47.2293
11.7576	1.29956	1.78218	46.9648
11.8586	1.29956	1.78218	46.6947
11.9596	1.29956	1.78218	46.4194
12.0606	1.29956	1.78218	46.1393
12.1616	1.29956	1.78218	45.8549
12.2626	1.29956	1.78218	45.5667
12.3636	1.29956	1.78218	45.2753
12.4646	1.29956	1.78218	44.9809
12.5657	1.29956	1.78218	44.684
12.6667	1.29956	1.78218	44.3848
12.7677	1.29956	1.78218	44.0834
12.8687	1.29956	1.78218	43.7801
12.9697	1.29956	1.78218	43.4749
13.0707	1.29956	1.78218	43.1678
13.1717	1.29956	1.78218	42.8587
13.2727	1.29956	1.78218	42.5474
13.3737	1.29956	1.78218	42.2337
13.4747	1.29956	1.78218	41.9174
13.5758	1.29956	1.78218	41.598
13.6768	1.29956	1.78218	41.2751
13.7778	1.29956	1.78218	40.9481
13.8788	1.29956	1.78218	40.6162
13.9798	1.29956	1.78218	40.2787
14.0808	1.29956	1.78218	39.9344
14.1818	1.29956	1.78218	39.582
14.2828	1.29956	1.78218	39.22
14.3838	1.29956	1.78218	38.8466
14.4848	1.29956	1.78218	38.4594
14.5859	1.29956	1.78218	38.0555
14.6869	1.29956	1.78218	37.6316
14.7879	1.29956	1.78218	37.1834
14.8889	1.29956	1.78218	36.7056
14.9899	1.29956	1.78218	36.1918
15.0909	1.29956	1.78218	35.6337
15.1919	1.29956	1.78218	35.0213
15.2929	1.29956	1.78218	34.3419
15.3939	1.29956	1.78218	33.5799
15.4949	1.29956	1.78218	32.7149
15.596	1.29956	1.78218	31.7216
15.697	1.29956	1.78218	30.5667
15.798	1.29956	1.78218	29.207
15.899	1.29956	1.78218	27.5795
16	1.29956	1.78218	-inf
6	1.31382	1.82927	58.0947
6.10101	1.31382	1.82927	58.0007
6.20202	1.31382	1.82927	57.9
6.30303	1.31382	1.82927	57.7904
6.40404	1.31382	1.82927	57.6704
6.50505	1.31382	1.82927	57.5393
6.60606	1.31382	1.82927	57.3976
6.70707	1.31382	1.82927	57.246
6.80808	1.31382	1.82927	57.0856
6.90909	1.31382	1.82927	56.9177
7.0101	1.31382	1.82927	56.7434
7.11111	1.31382	1.82927	56.5637
7.21212	1.31382	1.82927	56.3797
7.31313	1.31382	1.82927	56.1922
7.41414	1.31382	1.82927	56.0017
7.51515	1.31382	1.82927	55.8089
7.61616	1.31382	1.82927	55.6142
7.71717	1.31382	1.82927	55.4181
7.81818	1.31382	1.82927	55.2207
7.91919	1.31382	1.82927	55.0224
8.0202	1.31382	1.82927	54.8233
8.12121	1.31382	1.82927	54.6236
8.22222	1.31382	1.82927	54.4234
8.32323	1.31382	1.82927	54.2228
8.42424	1.31382	1.82927	54.0219
8.52525	1.31382	1.82927	53.8208
8.62626	1.31382	1.82927	53.6194
8.72727	1.31382	1.82927	53.4179
8.82828	1.31382	1.82927	53.2162
8.92929	1.31382	1.82927	53.0144
9.0303	1.31382	1.82927	52.8125
9.13131	1.31382	1.82927	52.6105
9.23232	1.31382	1.82927	52.4084
9.33333	1.31382	1.82927	52.2061
9.43434	1.31382	1.82927	52.0037
9.53535	1.31382	1.82927	51.8012
9.63636	1.31382	1.82927	51.5984
9.73737	1.31382	1.82927	51.3953
9.83838	1.31382	1.82927	51.1919
9.93939	1.31382	1.82927	50.9881
10.0404	1.31382	1.82927	50.7838
10.1414	1.31382	1.82927	50.5788
10.2424	1.31382	1.82927	50.3729
10.3434	1.31382	1.82927	50.166
10.4444	1.31382	1.82927	49.9577
10.5455	1.31382	1.82927	49.7477
10.6465	1.31382	1.82927	49.5356
10.7475	1.31382	1.82927	49.321
10.8485	1.31382	1.82927	49.1034
10.9495	1.31382	1.82927	48.8822
11.0505	1.31382	1.82927	48.6568
11.1515	1.31382	1.82927	48.4268
11.2525	1.31382	1.82927	48.1915
11.3535	1.31382	1.82927	47.9505
11.4545	1.31382	1.82927	47.7037
11.5556	1.31382	1.82927	47.4507
11.6566	1.31382	1.82927	47.1916
11.7576	1.31382	1.82927	46.9266
11.8586	1.31382	1.82927	46.656
11.9596	1.31382	1.82927	46.3803
12.0606	1.31382	1.82927	46.0998
12.1616	1.31382	1.82927	45.8151
12.2626	1.31382	1.82927	45.5267
12.3636	1.31382	1.82927	45.235
12.4646	1.31382	1.82927	44.9405
12.5657	1.31382	1.82927	44.6434
12.6667	1.31382	1.82927	44.344
12.7677	1.31382	1.82927	44.0426
12.8687	1.31382	1.82927	43.7392
12.9697	1.31382	1.82927	43.4339
13.0707	1.31382	1.82927	43.1267
13.1717	1.31382	1.82927	42.8175
13.2727	1.31382	1.82927	42.5062
13.3737	1.31382	1.82927	42.1925
13.4747	1.31382	1.82927	41.8762
13.5758	1.31382	1.82927	41.5568
13.6768	1.31382	1.82927	41.2339
13.7778	1.31382	1.82927	40.9069
13.8788	1.31382	1.82927	40.575
13.9798	1.31382	1.82927	40.2374
14.0808	1.31382	1.82927	39.8931
14.1818	1.31382	1.82927	39.5407
14.2828	1.31382	1.82927	39.1788
14.3838	1.31382	1.82927	38.8053
14.4848	1.31382	1.82927	38.4181
14.5859	1.31382	1.82927	38.0143
14.6869	1.31382	1.82927	37.5904
14.7879	1.31382	1.82927	37.1422
14.8889	1.31382	1.82927	36.6644
14.9899	1.31382	1.82927	36.1505
15.0909	1.31382	1.82927	35.5924
15.1919	1.31382	1.82927	34.98
15.2929	1.31382	1.82927	34.3007
15.3939	1.31382	1.82927	33.5386
15.4949	1.31382	1.82927	32.6737
15.596	1.31382	1.82927	31.6803
15.697	1.31382	1.82927	30.5254
15.798	1.31382	1.82927	29.1657
15.899	1.31382	1.82927	27.5382
16	1.31382	1.82927	-inf
6	1.32809	1.87025	58.0648
6.10101	1.32809	1.87025	57.9696
6.20202	1.32809	1.87025	57.868
6.30303	1.32809	1.87025	57.7575
6.40404	1.32809	1.87025	57.6368
6.50505	1.32809	1.87025	57.5052
6.60606	1.32809	1.87025	57.363
6.70707	1.32809	1.87025	57.2111
6.80808	1.32809	1.87025	57.0504
6.90909	1.32809	1.87025	56.8823
7.0101	1.32809	1.87025	56.7078
7.11111	1.32809	1.87025	56.528
7.21212	1.32809	1.87025	56.3439
7.31313	1.32809	1.87025	56.1562
7.41414	1.32809	1.87025	55.9657
7.51515	1.32809	1.87025	55.7729
7.61616	1.32809	1.87025	55.5781
7.71717	1.32809	1.87025	55.3819
7.81818	1.32809	1.87025	55.1845
7.91919	1.32809	1.87025	54.9862
8.0202	1.32809	1.87025	54.7871
8.12121	1.32809	1.87025	54.5874
8.22222	1.32809	1.87025	54.3872
8.32323	1.32809	1.87025	54.1866
8.42424	1.32809	1.87025	53.9857
8.52525	1.32809	1.87025	53.7845
8.62626	1.32809	1.87025	53.5832
8.72727	1.32809	1.87025	53.3816
8.82828	1.32809	1.87025	53.18
8.92929	1.32809	1.87025	52.9782
9.0303	1.32809	1.87025	52.7762
9.13131	1.32809	1.87025	52.5742
9.23232	1.32809	1.87025	52.3721
9.33333	1.32809	1.87025	52.1698
9.43434	1.32809	1.87025	51.9673
9.53535	1.32809	1.87025	51.7647
9.63636	1.32809	1.87025	51.5619
9.73737	1.32809	1.87025	51.3588
9.83838	1.32809	1.87025	51.1553
9.93939	1.32809	1.87025	50.9514
10.0404	1.32809	1.87025	50.747
10.1414	1.32809	1.87025	50.5419
10.2424	1.32809	1.87025	50.3358
10.3434	1.32809	1.87025	50.1287
10.4444	1.32809	1.87025	49.9202
10.5455	1.32809	1.87025	49.7099
10.6465	1.32809	1.87025	49.4975
10.7475	1.32809	1.87025	49.2826
10.8485	1.32809	1.87025	49.0646
10.9495	1.32809	1.87025	48.8429
11.0505	1.32809	1.87025	48.6171
11.1515	1.32809	1.87025	48.3865
11.2525	1.32809	1.87025	48.1507
11.3535	1.32809	1.87025	47.9093
11.4545	1.32809	1.87025	47.6618
11.5556	1.32809	1.87025	47.4083
11.6566	1.32809	1.87025	47.1487
11.7576	1.32809	1.87025	46.8833
11.8586	1.32809	1.87025	46.6123
11.9596	1.32809	1.87025	46.3361
12.0606	1.32809	1.87025	46.0553
12.1616	1.32809	1.87025	45.7703
12.2626	1.32809	1.87025	45.4816
12.3636	1.32809	1.87025	45.1897
12.4646	1.32809	1.87025	44.895
12.5657	1.32809	1.87025	44.5978
12.6667	1.32809	1.87025	44.2983
12.7677	1.32809	1.87025	43.9968
12.8687	1.32809	1.87025	43.6933
12.9697	1.32809	1.87025	43.388
13.0707	1.32809	1.87025	43.0807
13.1717	1.32809	1.87025	42.7715
13.2727	1.32809	1.87025	42.4602
13.3737	1.32809	1.87025	42.1465
13.4747	1.32809	1.87025	41.8301
13.5758	1.32809	1.87025	41.5107
13.6768	1.32809	1.87025	41.1878
13.7778	1.32809	1.87025	40.8607
13.8788	1.32809	1.87025	40.5289
13.9798	1.32809	1.87025	40.1913
14.0808	1.32809	1.87025	39.8469
14.1818	1.32809	1.87025	39.4946
14.2828	1.32809	1.87025	39.1326
14.3838	1.32809	1.87025	38.7592
14.4848	1.32809	1.87025	38.3719
14.5859	1.32809	1.87025	37.9681
14.6869	1.32809	1.87025	37.5442
14.7879	1.32809	1.87025	37.096
14.8889	1.32809	1.87025	36.6182
14.9899	1.32809	1.87025	36.1043
15.0909	1.32809	1.87025	35.5462
15.1919	1.32809	1.87025	34.9338
15.2929	1.32809	1.87025	34.2545
15.3939	1.32809	1.87025	33.4924
15.4949	1.32809	1.87025	32.6275
15.596	1.32809	1.87025	31.6341
15.697	1.32809	1.87025	30.4792
15.798	1.32809	1.87025	29.1196
15.899	1.32809	1.87025	27.492
16	1.32809	1.87025	-inf
6	1.34235	1.92141	58.042
6.10101	1.34235	1.92141	57.946
6.20202	1.34235	1.92141	57.8435
6.30303	1.34235	1.92141	57.7324
6.40404	1.34235	1.92141	57.6111
6.50505	1.34235	1.92141	57.4791
6.60606	1.34235	1.92141	57.3365
6.70707	1.34235	1.92141	57.1843
6.80808	1.34235	1.92141	57.0234
6.90909	1.34235	1.92141	56.8551
7.0101	1.34235	1.92141	56.6805
7.11111	1.34235	1.92141	56.5006
7.21212	1.34235	1.92141	56.3164
7.31313	1.34235	1.92141	56.1287
7.41414	1.34235	1.92141	55.9381
7.51515	1.34235	1.92141	55.7452
7.61616	1.34235	1.92141	55.5505
7.71717	1.34235	1.92141	55.3542
7.81818	1.34235	1.92141	55.1568
7.91919	1.34235	1.92141	54.9585
8.0202	1.34235	1.92141	54.7593
8.12121	1.34235	1.92141	54.5596
8.22222	1.34235	1.92141	54.3594
8.32323	1.34235	1.92141	54.1588
8.42424	1.34235	1.92141	53.9579
8.52525	1.34235	1.92141	53.7567
8.62626	1.34235	1.92141	53.5554
8.72727	1.34235	1.92141	53.3538
8.82828	1.34235	1.92141	53.1521
8.92929	1.34235	1.92141	52.9503
9.0303	1.34235	1.92141	52.7484
9.13131	1.34235	1.92141	52.5463
9.23232	1.34235	1.92141	52.3442
9.33333	1.34235	1.92141	52.1419
9.43434	1.34235	1.92141	51.9394
9.53535	1.34235	1.92141	51.7367
9.63636	1.34235	1.92141	51.5339
9.73737	1.34235	1.92141	51.3307
9.83838	1.34235	1.92141	51.1272
9.93939	1.34235	1.92141	50.9232
10.0404	1.34235	1.92141	50.7187
10.1414	1.34235	1.92141	50.5134
10.2424	1.34235	1.92141	50.3072
10.3434	1.34235	1.92141	50.0999
10.4444	1.34235	1.92141	49.8911
10.5455	1.34235	1.92141	49.6806
10.6465	1.34235	1.92141	49.4679
10.7475	1.34235	1.92141	49.2527
10.8485	1.34235	1.92141	49.0342
10.9495	1.34235	1.92141	48.8122
11.0505	1.34235	1.92141	48.5858
11.1515	1.34235	1.92141	48.3547
11.2525	1.34235	1.92141	48.1184
11.3535	1.34235	1.92141	47.8763
11.4545	1.34235	1.92141	47.6283
11.5556	1.34235	1.92141	47.3742
11.6566	1.34235	1.92141	47.1141
11.7576	1.34235	1.92141	46.8481
11.8586	1.34235	1.92141	46.5766
11.9596	1.34235	1.92141	46.3
12.0606	1.34235	1.92141	46.0188
12.1616	1.34235	1.92141	45.7335
12.2626	1.34235	1.92141	45.4446
12.3636	1.34235	1.92141	45.1525
12.4646	1.34235	1.92141	44.8576
12.5657	1.34235	1.92141	44.5602
12.6667	1.34235	1.92141	44.2606
12.7677	1.34235	1.92141	43.9589
12.8687	1.34235	1.92141	43.6554
12.9697	1.34235	1.92141	43.35
13.0707	1.34235	1.92141	43.0427
13.1717	1.34235	1.92141	42.7334
13.2727	1.34235	1.92141	42.422
13.3737	1.34235	1.92141	42.1083
13.4747	1.34235	1.92141	41.7919
13.5758	1.34235	1.92141	41.4725
13.6768	1.34235	1.92141	41.1496
13.7778	1.34235	1.92141	40.8225
13.8788	1.34235	1.92141	40.4906
13.9798	1.34235	1.92141	40.1531
14.0808	1.34235	1.92141	39.8087
14.1818	1.34235	1.92141	39.4563
14.2828	1.34235	1.92141	39.0944
14.3838	1.34235	1.92141	38.7209
14.4848	1.34235	1.92141	38.3337
14.5859	1.34235	1.92141	37.9298
14.6869	1.34235	1.92141	37.5059
14.7879	1.34235	1.92141	37.0577
14.8889	1.34235	1.92141	36.58
14.9899	1.34235	1.92141	36.0661
15.0909	1.34235	1.92141	35.508
15.1919	1.34235	1.92141	34.8956
15.2929	1.34235	1.92141	34.2162
15.3939	1.34235	1.92141	33.4542
15.4949	1.34235	1.92141	32.5892
15.596	1.34235	1.92141	31.5959
15.697	1.34235	1.92141	30.441
15.798	1.34235	1.92141	29.0813
15.899	1.34235	1.92141	27.4538
16	1.34235	1.92141	-inf
6	1.35662	1.96674	58.0137
6.10101	1.35662	1.96674	57.9168
6.20202	1.35662	1.96674	57.8136
6.30303	1.35662	1.96674	57.7018
6.40404	1.35662	1.96674	57.5799
6.50505	1.35662	1.96674	57.4474
6.60606	1.35662	1.96674	57.3046
6.70707	1.35662	1.96674	57.1521
6.80808	1.35662	1.96674	56.991
6.90909	1.35662	1.96674	56.8225
7.0101	1.35662	1.96674	56.6477
7.11111	1.35662	1.96674	56.4677
7.21212	1.35662	1.96674	56.2835
7.31313	1.35662	1.96674	56.0957
7.41414	1.35662	1.96674	55.905
7.51515	1.35662	1.96674	55.7121
7.61616	1.35662	1.96674	55.5173
7.71717	1.35662	1.96674	55.3211
7.81818	1.35662	1.96674	55.1236
7.91919	1.35662	1.96674	54.9252
8.0202	1.35662	1.96674	54.7261
8.12121	1.35662	1.96674	54.5264
8.22222	1.35662	1.96674	54.3262
8.32323	1.35662	1.96674	54.1255
8.42424	1.35662	1.96674	53.9246
8.52525	1.35662	1.96674	53.7235
8.62626	1.35662	1.96674	53.5221
8.72727	1.35662	1.96674	53.3205
8.82828	1.35662	1.96674	53.1188
8.92929	1.35662	1.96674	52.917
9.0303	1.35662	1.96674	52.7151
9.13131	1.35662	1.96674	52.513
9.23232	1.35662	1.96674	52.3108
9.33333	1.35662	1.96674	52.1085
9.43434	1.35662	1.96674	51.906
9.53535	1.35662	1.96674	51.7033
9.63636	1.35662	1.96674	51.5004
9.73737	1.35662	1.96674	51.2971
9.83838	1.35662	1.96674	51.0935
9.93939	1.35662	1.96674	50.8895
10.0404	1.35662	1.96674	50.6848
10.1414	1.35662	1.96674	50.4794
10.2424	1.35662	1.96674	50.2731
10.3434	1.35662	1.96674	50.0656
10.4444	1.35662	1.96674	49.8566
10.5455	1.35662	1.96674	49.6459
10.6465	1.35662	1.96674	49.4329
10.7475	1.35662	1.96674	49.2173
10.8485	1.35662	1.96674	48.9985
10.9495	1.35662	1.96674	48.776
11.0505	1.35662	1.96674	48.5492
11.1515	1.35662	1.96674	48.3176
11.2525	1.35662	1.96674	48.0807
11.3535	1.35662	1.96674	47.8381
11.4545	1.35662	1.96674	47.5895
11.5556	1.35662	1.96674	47.3349
11.6566	1.35662	1.96674	47.0742
11.7576	1.35662	1.96674	46.8078
11.8586	1.35662	1.96674	46.5359
11.9596	1.35662	1.96674	46.2589
12.0606	1.35662	1.96674	45.9774
12.1616	1.35662	1.96674	45.6917
12.2626	1.35662	1.96674	45.4026
12.3636	1.35662	1.96674	45.1102
12.4646	1.35662	1.96674	44.8151
12.5657	1.35662	1.96674	44.5176
12.6667	1.35662	1.96674	44.2179
12.7677	1.35662	1.96674	43.9161
12.8687	1.35662	1.96674	43.6125
12.9697	1.35662	1.96674	43.3071
13.0707	1.35662	1.96674	42.9997
13.1717	1.35662	1.96674	42.6904
13.2727	1.35662	1.96674	42.379
13.3737	1.35662	1.96674	42.0652
13.4747	1.35662	1.96674	41.7488
13.5758	1.35662	1.96674	41.4294
13.6768	1.35662	1.96674	41.1064
13.7778	1.35662	1.96674	40.7794
13.8788	1.35662	1.96674	40.4475
13.9798	1.35662	1.96674	40.1099
14.0808	1.35662	1.96674	39.7656
14.1818	1.35662	1.96674	39.4132
14.2828	1.35662	1.96674	39.0512
14.3838	1.35662	1.96674	38.6777
14.4848	1.35662	1.96674	38.2905
14.5859	1.35662	1.96674	37.8867
14.6869	1.35662	1.96674	37.4628
14.7879	1.35662	1.96674	37.0146
14.8889	1.35662	1.96674	36.5368
14.9899	1.35662	1.96674	36.0229
15.0909	1.35662	1.96674	35.4648
15.1919	1.35662	1.96674	34.8524
15.2929	1.35662	1.96674	34.1731
15.3939	1.35662	1.96674	33.411
15.4949	1.35662	1.96674	32.5461
15.596	1.35662	1.96674	31.5527
15.697	1.35662	1.96674	30.3978
15.798	1.35662	1.96674	29.0381
15.899	1.35662	1.96674	27.4106
16	1.35662	1.96674	-inf
6	1.37088	2.01174	57.9842
6.10101	1.37088	2.01174	57.8865
6.20202	1.37088	2.01174	57.7825
6.30303	1.37088	2.01174	57.6701
6.40404	1.37088	2.01174	57.5477
6.50505	1.37088	2.01174	57.4149
6.60606	1.37088	2.01174	57.2717
6.70707	1.37088	2.01174	57.1189
6.80808	1.37088	2.01174	56.9576
6.90909	1.37088	2.01174	56.789
7.0101	1.37088	2.01174	56.6141
7.11111	1.37088	2.01174	56.434
7.21212	1.37088	2.01174	56.2496
7.31313	1.37088	2.01174	56.0618
7.41414	1.37088	2.01174	55.8711
7.51515	1.37088	2.01174	55.6781
7.61616	1.37088	2.01174	55.4833
7.71717	1.37088	2.01174	55.2871
7.81818	1.37088	2.01174	55.0896
7.91919	1.37088	2.01174	54.8912
8.0202	1.37088	2.01174	54.6921
8.12121	1.37088	2.01174	54.4923
8.22222	1.37088	2.01174	54.2921
8.32323	1.37088	2.01174	54.0915
8.42424	1.37088	2.01174	53.8905
8.52525	1.37088	2.01174	53.6894
8.62626	1.37088	2.01174	53.488
8.72727	1.37088	2.01174	53.2864
8.82828	1.37088	2.01174	53.0847
8.92929	1.37088	2.01174	52.8829
9.0303	1.37088	2.01174	52.6809
9.13131	1.37088	2.01174	52.4788
9.23232	1.37088	2.01174	52.2766
9.33333	1.37088	2.01174	52.0743
9.43434	1.37088	2.01174	51.8717
9.53535	1.37088	2.01174	51.669
9.63636	1.37088	2.01174	51.466
9.73737	1.37088	2.01174	51.2628
9.83838	1.37088	2.01174	51.0591
9.93939	1.37088	2.01174	50.8549
10.0404	1.37088	2.01174	50.6502
10.1414	1.37088	2.01174	50.4447
10.2424	1.37088	2.01174	50.2382
10.3434	1.37088	2.01174	50.0305
10.4444	1.37088	2.01174	49.8213
10.5455	1.37088	2.01174	49.6103
10.6465	1.37088	2.01174	49.3971
10.7475	1.37088	2.01174	49.1811
10.8485	1.37088	2.01174	48.9619
10.9495	1.37088	2.01174	48.739
11.0505	1.37088	2.01174	48.5117
11.1515	1.37088	2.01174	48.2796
11.2525	1.37088	2.01174	48.0422
11.3535	1.37088	2.01174	47.7991
11.4545	1.37088	2.01174	47.55
11.5556	1.37088	2.01174	47.2948
11.6566	1.37088	2.01174	47.0337
11.7576	1.37088	2.01174	46.7667
11.8586	1.37088	2.01174	46.4944
11.9596	1.37088	2.01174	46.217
12.0606	1.37088	2.01174	45.9352
12.1616	1.37088	2.01174	45.6493
12.2626	1.37088	2.01174	45.3598
12.3636	1.37088	2.01174	45.0673
12.4646	1.37088	2.01174	44.772
12.5657	1.37088	2.01174	44.4743
12.6667	1.37088	2.01174	44.1745
12.7677	1.37088	2.01174	43.8727
12.8687	1.37088	2.01174	43.569
12.9697	1.37088	2.01174	43.2634
13.0707	1.37088	2.01174	42.9561
13.1717	1.37088	2.01174	42.6467
13.2727	1.37088	2.01174	42.3353
13.3737	1.37088	2.01174	42.0215
13.4747	1.37088	2.01174	41.705
13.5758	1.37088	2.01174	41.3856
13.6768	1.37088	2.01174	41.0626
13.7778	1.37088	2.01174	40.7356
13.8788	1.37088	2.01174	40.4037
13.9798	1.37088	2.01174	40.0661
14.0808	1.37088	2.01174	39.7217
14.1818	1.37088	2.01174	39.3693
14.2828	1.37088	2.01174	39.0073
14.3838	1.37088	2.01174	38.6339
14.4848	1.37088	2.01174	38.2467
14.5859	1.37088	2.01174	37.8428
14.6869	1.37088	2.01174	37.4189
14.7879	1.37088	2.01174	36.9707
14.8889	1.37088	2.01174	36.4929
14.9899	1.37088	2.01174	35.979
15.0909	1.37088	2.01174	35.4209
15.1919	1.37088	2.01174	34.8085
15.2929	1.37088	2.01174	34.1292
15.3939	1.37088	2.01174	33.3671
15.4949	1.37088	2.01174	32.5022
15.596	1.37088	2.01174	31.5088
15.697	1.37088	2.01174	30.354
15.798	1.37088	2.01174	28.9943
15.899	1.37088	2.01174	27.3668
16	1.37088	2.01174	-inf
6	1.38515	2.06193	57.9578
6.10101	1.38515	2.06193	57.8594
6.20202	1.38515	2.06193	57.7548
6.30303	1.38515	2.06193	57.6419
6.40404	1.38515	2.06193	57.5191
6.50505	1.38515	2.06193	57.3859
6.60606	1.38515	2.06193	57.2424
6.70707	1.38515	2.06193	57.0894
6.80808	1.38515	2.06193	56.928
6.90909	1.38515	2.06193	56.7592
7.0101	1.38515	2.06193	56.5842
7.11111	1.38515	2.06193	56.404
7.21212	1.38515	2.06193	56.2196
7.31313	1.38515	2.06193	56.0317
7.41414	1.38515	2.06193	55.841
7.51515	1.38515	2.06193	55.648
7.61616	1.38515	2.06193	55.4532
7.71717	1.38515	2.06193	55.2569
7.81818	1.38515	2.06193	55.0594
7.91919	1.38515	2.06193	54.861
8.0202	1.38515	2.06193	54.6618
8.12121	1.38515	2.06193	54.4621
8.22222	1.38515	2.06193	54.2618
8.32323	1.38515	2.06193	54.0612
8.42424	1.38515	2.06193	53.8603
8.52525	1.38515	2.06193	53.6591
8.62626	1.38515	2.06193	53.4577
8.72727	1.38515	2.06193	53.2561
8.82828	1.38515	2.06193	53.0544
8.92929	1.38515	2.06193	52.8526
9.0303	1.38515	2.06193	52.6506
9.13131	1.38515	2.06193	52.4485
9.23232	1.38515	2.06193	52.2463
9.33333	1.38515	2.06193	52.0439
9.43434	1.38515	2.06193	51.8413
9.53535	1.38515	2.06193	51.6385
9.63636	1.38515	2.06193	51.4355
9.73737	1.38515	2.06193	51.2322
9.83838	1.38515	2.06193	51.0285
9.93939	1.38515	2.06193	50.8242
10.0404	1.38515	2.06193	50.6194
10.1414	1.38515	2.06193	50.4137
10.2424	1.38515	2.06193	50.2071
10.3434	1.38515	2.06193	49.9992
10.4444	1.38515	2.06193	49.7898
10.5455	1.38515	2.06193	49.5786
10.6465	1.38515	2.06193	49.365
10.7475	1.38515	2.06193	49.1487
10.8485	1.38515	2.06193	48.9292
10.9495	1.38515	2.06193	48.7058
11.0505	1.38515	2.06193	48.4781
11.1515	1.38515	2.06193	48.2455
11.2525	1.38515	2.06193	48.0075
11.3535	1.38515	2.06193	47.7638
11.4545	1.38515	2.06193	47.5142
11.5556	1.38515	2.06193	47.2585
11.6566	1.38515	2.06193	46.9968
11.7576	1.38515	2.06193	46.7294
11.8586	1.38515	2.06193	46.4566
11.9596	1.38515	2.06193	46.1788
12.0606	1.38515	2.06193	45.8966
12.1616	1.38515	2.06193	45.6104
12.2626	1.38515	2.06193	45.3207
12.3636	1.38515	2.06193	45.0279
12.4646	1.38515	2.06193	44.7325
12.5657	1.38515	2.06193	44.4346
12.6667	1.38515	2.06193	44.1347
12.7677	1.38515	2.06193	43.8328
12.8687	1.38515	2.06193	43.529
12.9697	1.38515	2.06193	43.2234
13.0707	1.38515	2.06193	42.916
13.1717	1.38515	2.06193	42.6066
13.2727	1.38515	2.06193	42.2951
13.3737	1.38515	2.06193	41.9813
13.4747	1.38515	2.06193	41.6648
13.5758	1.38515	2.06193	41.3454
13.6768	1.38515	2.06193	41.0224
13.7778	1.38515	2.06193	40.6953
13.8788	1.38515	2.06193	40.3634
13.9798	1.38515	2.06193	40.0258
14.0808	1.38515	2.06193	39.6814
14.1818	1.38515	2.06193	39.329
14.2828	1.38515	2.06193	38.9671
14.3838	1.38515	2.06193	38.5936
14.4848	1.38515	2.06193	38.2064
14.5859	1.38515	2.06193	37.8025
14.6869	1.38515	2.06193	37.3786
14.7879	1.38515	2.06193	36.9304
14.8889	1.38515	2.06193	36.4526
14.9899	1.38515	2.06193	35.9387
15.0909	1.38515	2.06193	35.3806
15.1919	1.38515	2.06193	34.7682
15.2929	1.38515	2.06193	34.0889
15.3939	1.38515	2.06193	33.3268
15.4949	1.38515	2.06193	32.4619
15.596	1.38515	2.06193	31.4685
15.697	1.38515	2.06193	30.3137
15.798	1.38515	2.06193	28.954
15.899	1.38515	2.06193	27.3265
16	1.38515	2.06193	-inf
6	1.39941	2.10661	57.9259
6.10101	1.39941	2.10661	57.8268
6.20202	1.39941	2.10661	57.7216
6.30303	1.39941	2.10661	57.6082
6.40404	1.39941	2.10661	57.485
6.50505	1.39941	2.10661	57.3514
6.60606	1.39941	2.10661	57.2077
6.70707	1.39941	2.10661	57.0544
6.80808	1.39941	2.10661	56.8928
6.90909	1.39941	2.10661	56.7239
7.0101	1.39941	2.10661	56.5488
7.11111	1.39941	2.10661	56.3686
7.21212	1.39941	2.10661	56.1841
7.31313	1.39941	2.10661	55.9961
7.41414	1.39941	2.10661	55.8054
7.51515	1.39941	2.10661	55.6123
7.61616	1.39941	2.10661	55.4175
7.71717	1.39941	2.10661	55.2211
7.81818	1.39941	2.10661	55.0237
7.91919	1.39941	2.10661	54.8252
8.0202	1.39941	2.10661	54.6261
8.12121	1.39941	2.10661	54.4263
8.22222	1.39941	2.10661	54.226
8.32323	1.39941	2.10661	54.0254
8.42424	1.39941	2.10661	53.8245
8.52525	1.39941	2.10661	53.6233
8.62626	1.39941	2.10661	53.4219
8.72727	1.39941	2.10661	53.2203
8.82828	1.39941	2.10661	53.0186
8.92929	1.39941	2.10661	52.8167
9.0303	1.39941	2.10661	52.6147
9.13131	1.39941	2.10661	52.4126
9.23232	1.39941	2.10661	52.2104
9.33333	1.39941	2.10661	52.008
9.43434	1.39941	2.10661	51.8054
9.53535	1.39941	2.10661	51.6026
9.63636	1.39941	2.10661	51.3995
9.73737	1.39941	2.10661	51.1961
9.83838	1.39941	2.10661	50.9923
9.93939	1.39941	2.10661	50.788
10.0404	1.39941	2.10661	50.583
10.1414	1.39941	2.10661	50.3773
10.2424	1.39941	2.10661	50.1705
10.3434	1.39941	2.10661	49.9625
10.4444	1.39941	2.10661	49.7529
10.5455	1.39941	2.10661	49.5414
10.6465	1.39941	2.10661	49.3275
10.7475	1.39941	2.10661	49.1109
10.8485	1.39941	2.10661	48.891
10.9495	1.39941	2.10661	48.6672
11.0505	1.39941	2.10661	48.439
11.1515	1.39941	2.10661	48.2059
11.2525	1.39941	2.10661	47.9675
11.3535	1.39941	2.10661	47.7232
11.4545	1.39941	2.10661	47.473
11.5556	1.39941	2.10661	47.2168
11.6566	1.39941	2.10661	46.9546
11.7576	1.39941	2.10661	46.6868
11.8586	1.39941	2.10661	46.4135
11.9596	1.39941	2.10661	46.1354
12.0606	1.39941	2.10661	45.8529
12.1616	1.39941	2.10661	45.5664
12.2626	1.39941	2.10661	45.2764
12.3636	1.39941	2.10661	44.9835
12.4646	1.39941	2.10661	44.6879
12.5657	1.39941	2.10661	44.3899
12.6667	1.39941	2.10661	44.0898
12.7677	1.39941	2.10661	43.7878
12.8687	1.39941	2.10661	43.484
12.9697	1.39941	2.10661	43.1783
13.0707	1.39941	2.10661	42.8708
13.1717	1.39941	2.10661	42.5614
13.2727	1.39941	2.10661	42.2499
13.3737	1.39941	2.10661	41.9361
13.4747	1.39941	2.10661	41.6196
13.5758	1.39941	2.10661	41.3001
13.6768	1.39941	2.10661	40.9771
13.7778	1.39941	2.10661	40.65
13.8788	1.39941	2.10661	40.3181
13.9798	1.39941	2.10661	39.9805
14.0808	1.39941	2.10661	39.6361
14.1818	1.39941	2.10661	39.2837
14.2828	1.39941	2.10661	38.9218
14.3838	1.39941	2.10661	38.5483
14.4848	1.39941	2.10661	38.1611
14.5859	1.39941	2.10661	37.7572
14.6869	1.39941	2.10661	37.3333
14.7879	1.39941	2.10661	36.8851
14.8889	1.39941	2.10661	36.4073
14.9899	1.39941	2.10661	35.8934
15.0909	1.39941	2.10661	35.3353
15.1919	1.39941	2.10661	34.7229
15.2929	1.39941	2.10661	34.0436
15.3939	1.39941	2.10661	33.2815
15.4949	1.39941	2.10661	32.4166
15.596	1.39941	2.10661	31.4232
15.697	1.39941	2.10661	30.2684
15.798	1.39941	2.10661	28.9087
15.899	1.39941	2.10661	27.2811
16	1.39941	2.10661	-inf
6	1.41368	2.15671	57.8973
6.10101	1.41368	2.15671	57.7976
6.20202	1.41368	2.15671	57.6919
6.30303	1.41368	2.15671	57.578
6.40404	1.41368	2.15671	57.4544
6.50505	1.41368	2.15671	57.3205
6.60606	1.41368	2.15671	57.1765
6.70707	1.41368	2.15671	57.0232
6.80808	1.41368	2.15671	56.8614
6.90909	1.41368	2.15671	56.6923
7.0101	1.41368	2.15671	56.5172
7.11111	1.41368	2.15671	56.3368
7.21212	1.41368	2.15671	56.1523
7.31313	1.41368	2.15671	55.9643
7.41414	1.41368	2.15671	55.7735
7.51515	1.41368	2.15671	55.5804
7.61616	1.41368	2.15671	55.3856
7.71717	1.41368	2.15671	55.1892
7.81818	1.41368	2.15671	54.9917
7.91919	1.41368	2.15671	54.7933
8.0202	1.41368	2.15671	54.5941
8.12121	1.41368	2.15671	54.3943
8.22222	1.41368	2.15671	54.1941
8.32323	1.41368	2.15671	53.9934
8.42424	1.41368	2.15671	53.7925
8.52525	1.41368	2.15671	53.5913
8.62626	1.41368	2.15671	53.3899
8.72727	1.41368	2.15671	53.1883
8.82828	1.41368	2.15671	52.9866
8.92929	1.41368	2.15671	52.7847
9.0303	1.41368	2.15671	52.5827
9.13131	1.41368	2.15671	52.3806
9.23232	1.41368	2.15671	52.1783
9.33333	1.41368	2.15671	51.9758
9.43434	1.41368	2.15671	51.7732
9.53535	1.41368	2.15671	51.5704
9.63636	1.41368	2.15671	51.3673
9.73737	1.41368	2.15671	51.1638
9.83838	1.41368	2.15671	50.96
9.93939	1.41368	2.15671	50.7556
10.0404	1.41368	2.15671	50.5505
10.1414	1.41368	2.15671	50.3446
10.2424	1.41368	2.15671	50.1377
10.3434	1.41368	2.15671	49.9295
10.4444	1.41368	2.15671	49.7197
10.5455	1.41368	2.15671	49.5079
10.6465	1.41368	2.15671	49.2938
10.7475	1.41368	2.15671	49.0769
10.8485	1.41368	2.15671	48.8565
10.9495	1.41368	2.15671	48.6323
11.0505	1.41368	2.15671	48.4037
11.1515	1.41368	2.15671	48.1701
11.2525	1.41368	2.15671	47.9311
11.3535	1.41368	2.15671	47.6863
11.4545	1.41368	2.15671	47.4356
11.5556	1.41368	2.15671	47.1788
11.6566	1.41368	2.15671	46.9161
11.7576	1.41368	2.15671	46.6478
11.8586	1.41368	2.15671	46.3741
11.9596	1.41368	2.15671	46.0956
12.0606	1.41368	2.15671	45.8127
12.1616	1.41368	2.15671	45.5259
12.2626	1.41368	2.15671	45.2357
12.3636	1.41368	2.15671	44.9426
12.4646	1.41368	2.15671	44.6468
12.5657	1.41368	2.15671	44.3487
12.6667	1.41368	2.15671	44.0485
12.7677	1.41368	2.15671	43.7464
12.8687	1.41368	2.15671	43.4424
12.9697	1.41368	2.15671	43.1367
13.0707	1.41368	2.15671	42.8292
13.1717	1.41368	2.15671	42.5197
13.2727	1.41368	2.15671	42.2082
13.3737	1.41368	2.15671	41.8943
13.4747	1.41368	2.15671	41.5778
13.5758	1.41368	2.15671	41.2583
13.6768	1.41368	2.15671	40.9353
13.7778	1.41368	2.15671	40.6082
13.8788	1.41368	2.15671	40.2763
13.9798	1.41368	2.15671	39.9387
14.0808	1.41368	2.15671	39.5943
14.1818	1.41368	2.15671	39.2419
14.2828	1.41368	2.15671	38.8799
14.3838	1.41368	2.15671	38.5065
14.4848	1.41368	2.15671	38.1192
14.5859	1.41368	2.15671	37.7154
14.6869	1.41368	2.15671	37.2915
14.7879	1.41368	2.15671	36.8433
14.8889	1.41368	2.15671	36.3655
14.9899	1.41368	2.15671	35.8516
15.0909	1.41368	2.15671	35.2935
15.1919	1.41368	2.15671	34.6811
15.2929	1.41368	2.15671	34.0018
15.3939	1.41368	2.15671	33.2397
15.4949	1.41368	2.15671	32.3748
15.596	1.41368	2.15671	31.3814
15.697	1.41368	2.15671	30.2265
15.798	1.41368	2.15671	28.8668
15.899	1.41368	2.15671	27.2393
16	1.41368	2.15671	-inf
6	1.42794	2.20689	57.8675
6.10101	1.42794	2.20689	57.7673
6.20202	1.42794	2.20689	57.6611
6.30303	1.42794	2.20689	57.5468
6.40404	1.42794	2.20689	57.4228
6.50505	1.42794	2.20689	57.2887
6.60606	1.42794	2.20689	57.1445
6.70707	1.42794	2.20689	56.9909
6.80808	1.42794	2.20689	56.829
6.90909	1.42794	2.20689	56.6598
7.0101	1.42794	2.20689	56.4846
7.11111	1.42794	2.20689	56.3042
7.21212	1.42794	2.20689	56.1196
7.31313	1.42794	2.20689	55.9315
7.41414	1.42794	2.20689	55.7407
7.51515	1.42794	2.20689	55.5476
7.61616	1.42794	2.20689	55.3527
7.71717	1.42794	2.20689	55.1564
7.81818	1.42794	2.20689	54.9589
7.91919	1.42794	2.20689	54.7604
8.0202	1.42794	2.20689	54.5612
8.12121	1.42794	2.20689	54.3614
8.22222	1.42794	2.20689	54.1612
8.32323	1.42794	2.20689	53.9605
8.42424	1.42794	2.20689	53.7596
8.52525	1.42794	2.20689	53.5584
8.62626	1.42794	2.20689	53.357
8.72727	1.42794	2.20689	53.1554
8.82828	1.42794	2.20689	52.9536
8.92929	1.42794	2.20689	52.7517
9.0303	1.42794	2.20689	52.5497
9.13131	1.42794	2.20689	52.3476
9.23232	1.42794	2.20689	52.1453
9.33333	1.42794	2.20689	51.9428
9.43434	1.42794	2.20689	51.7402
9.53535	1.42794	2.20689	51.5373
9.63636	1.42794	2.20689	51.3341
9.73737	1.42794	2.20689	51.1306
9.83838	1.42794	2.20689	50.9267
9.93939	1.42794	2.20689	50.7222
10.0404	1.42794	2.20689	50.5171
10.1414	1.42794	2.20689	50.3111
10.2424	1.42794	2.20689	50.104
10.3434	1.42794	2.20689	49.8956
10.4444	1.42794	2.20689	49.6856
10.5455	1.42794	2.20689	49.4736
10.6465	1.42794	2.20689	49.2592
10.7475	1.42794	2.20689	49.0419
10.8485	1.42794	2.20689	48.8212
10.9495	1.42794	2.20689	48.5966
11.0505	1.42794	2.20689	48.3675
11.1515	1.42794	2.20689	48.1334
11.2525	1.42794	2.20689	47.8938
11.3535	1.42794	2.20689	47.6485
11.4545	1.42794	2.20689	47.3972
11.5556	1.42794	2.20689	47.1399
11.6566	1.42794	2.20689	46.8767
11.7576	1.42794	2.20689	46.6079
11.8586	1.42794	2.20689	46.3338
11.9596	1.42794	2.20689	46.0549
12.0606	1.42794	2.20689	45.7717
12.1616	1.42794	2.20689	45.4846
12.2626	1.42794	2.20689	45.1942
12.3636	1.42794	2.20689	44.9008
12.4646	1.42794	2.20689	44.6048
12.5657	1.42794	2.20689	44.3066
12.6667	1.42794	2.20689	44.0063
12.7677	1.42794	2.20689	43.7041
12.8687	1.42794	2.20689	43.4001
12.9697	1.42794	2.20689	43.0943
13.0707	1.42794	2.20689	42.7867
13.1717	1.42794	2.20689	42.4772
13.2727	1.42794	2.20689	42.1656
13.3737	1.42794	2.20689	41.8517
13.4747	1.42794	2.20689	41.5352
13.5758	1.42794	2.20689	41.2157
13.6768	1.42794	2.20689	40.8927
13.7778	1.42794	2.20689	40.5656
13.8788	1.42794	2.20689	40.2337
13.9798	1.42794	2.20689	39.896
14.0808	1.42794	2.20689	39.5517
14.1818	1.42794	2.20689	39.1993
14.2828	1.42794	2.20689	38.8373
14.3838	1.42794	2.20689	38.4638
14.4848	1.42794	2.20689	38.0766
14.5859	1.42794	2.20689	37.6727
14.6869	1.42794	2.20689	37.2488
14.7879	1.42794	2.20689	36.8006
14.8889	1.42794	2.20689	36.3228
14.9899	1.42794	2.20689	35.8089
15.0909	1.42794	2.20689	35.2508
15.1919	1.42794	2.20689	34.6384
15.2929	1.42794	2.20689	33.9591
15.3939	1.42794	2.20689	33.197
15.4949	1.42794	2.20689	32.3321
15.596	1.42794	2.20689	31.3387
15.697	1.42794	2.20689	30.1839
15.798	1.42794	2.20689	28.8242
15.899	1.42794	2.20689	27.1966
16	1.42794	2.20689	-inf
6	1.44221	2.25725	57.8365
6.10101	1.44221	2.25725	57.7358
6.20202	1.44221	2.25725	57.6292
6.30303	1.44221	2.25725	57.5145
6.40404	1.44221	2.25725	57.3902
6.50505	1.44221	2.25725	57.2558
6.60606	1.44221	2.25725	57.1114
6.70707	1.44221	2.25725	56.9576
6.80808	1.44221	2.25725	56.7956
6.90909	1.44221	2.25725	56.6264
7.0101	1.44221	2.25725	56.451
7.11111	1.44221	2.25725	56.2706
7.21212	1.44221	2.25725	56.0859
7.31313	1.44221	2.25725	55.8978
7.41414	1.44221	2.25725	55.707
7.51515	1.44221	2.25725	55.5139
7.61616	1.44221	2.25725	55.3189
7.71717	1.44221	2.25725	55.1226
7.81818	1.44221	2.25725	54.925
7.91919	1.44221	2.25725	54.7266
8.0202	1.44221	2.25725	54.5274
8.12121	1.44221	2.25725	54.3276
8.22222	1.44221	2.25725	54.1273
8.32323	1.44221	2.25725	53.9267
8.42424	1.44221	2.25725	53.7257
8.52525	1.44221	2.25725	53.5245
8.62626	1.44221	2.25725	53.3231
8.72727	1.44221	2.25725	53.1215
8.82828	1.44221	2.25725	52.9197
8.92929	1.44221	2.25725	52.7178
9.0303	1.44221	2.25725	52.5158
9.13131	1.44221	2.25725	52.3136
9.23232	1.44221	2.25725	52.1113
9.33333	1.44221	2.25725	51.9088
9.43434	1.44221	2.25725	51.7062
9.53535	1.44221	2.25725	51.5032
9.63636	1.44221	2.25725	51.3
9.73737	1.44221	2.25725	51.0965
9.83838	1.44221	2.25725	50.8925
9.93939	1.44221	2.25725	50.6879
10.0404	1.44221	2.25725	50.4827
10.1414	1.44221	2.25725	50.2765
10.2424	1.44221	2.25725	50.0693
10.3434	1.44221	2.25725	49.8608
10.4444	1.44221	2.25725	49.6505
10.5455	1.44221	2.25725	49.4383
10.6465	1.44221	2.25725	49.2236
10.7475	1.44221	2.25725	49.006
10.8485	1.44221	2.25725	48.7849
10.9495	1.44221	2.25725	48.5599
11.0505	1.44221	2.25725	48.3303
11.1515	1.44221	2.25725	48.0957
11.2525	1.44221	2.25725	47.8556
11.3535	1.44221	2.25725	47.6098
11.4545	1.44221	2.25725	47.3579
11.5556	1.44221	2.25725	47.1001
11.6566	1.44221	2.25725	46.8364
11.7576	1.44221	2.25725	46.5671
11.8586	1.44221	2.25725	46.2926
11.9596	1.44221	2.25725	46.0133
12.0606	1.44221	2.25725	45.7297
12.1616	1.44221	2.25725	45.4423
12.2626	1.44221	2.25725	45.1517
12.3636	1.44221	2.25725	44.8581
12.4646	1.44221	2.25725	44.562
12.5657	1.44221	2.25725	44.2636
12.6667	1.44221	2.25725	43.9632
12.7677	1.44221	2.25725	43.6609
12.8687	1.44221	2.25725	43.3568
12.9697	1.44221	2.25725	43.0509
13.0707	1.44221	2.25725	42.7433
13.1717	1.44221	2.25725	42.4338
13.2727	1.44221	2.25725	42.1222
13.3737	1.44221	2.25725	41.8083
13.4747	1.44221	2.25725	41.4917
13.5758	1.44221	2.25725	41.1722
13.6768	1.44221	2.25725	40.8492
13.7778	1.44221	2.25725	40.5221
13.8788	1.44221	2.25725	40.1901
13.9798	1.44221	2.25725	39.8525
14.0808	1.44221	2.25725	39.5081
14.1818	1.44221	2.25725	39.1557
14.2828	1.44221	2.25725	38.7937
14.3838	1.44221	2.25725	38.4202
14.4848	1.44221	2.25725	38.033
14.5859	1.44221	2.25725	37.6292
14.6869	1.44221	2.25725	37.2053
14.7879	1.44221	2.25725	36.757
14.8889	1.44221	2.25725	36.2793
14.9899	1.44221	2.25725	35.7654
15.0909	1.44221	2.25725	35.2073
15.1919	1.44221	2.25725	34.5949
15.2929	1.44221	2.25725	33.9155
15.3939	1.44221	2.25725	33.1534
15.4949	1.44221	2.25725	32.2885
15.596	1.44221	2.25725	31.2952
15.697	1.44221	2.25725	30.1403
15.798	1.44221	2.25725	28.7806
15.899	1.44221	2.25725	27.1531
16	1.44221	2.25725	-inf
6	1.45647	2.30787	57.8043
6.10101	1.45647	2.30787	57.7031
6.20202	1.45647	2.30787	57.5961
6.30303	1.45647	2.30787	57.481
6.40404	1.45647	2.30787	57.3565
6.50505	1.45647	2.30787	57.2218
6.60606	1.45647	2.30787	57.0772
6.70707	1.45647	2.30787	56.9233
6.80808	1.45647	2.30787	56.7611
6.90909	1.45647	2.30787	56.5918
7.0101	1.45647	2.30787	56.4164
7.11111	1.45647	2.30787	56.2359
7.21212	1.45647	2.30787	56.0512
7.31313	1.45647	2.30787	55.8631
7.41414	1.45647	2.30787	55.6722
7.51515	1.45647	2.30787	55.479
7.61616	1.45647	2.30787	55.2841
7.71717	1.45647	2.30787	55.0877
7.81818	1.45647	2.30787	54.8902
7.91919	1.45647	2.30787	54.6917
8.0202	1.45647	2.30787	54.4925
8.12121	1.45647	2.30787	54.2927
8.22222	1.45647	2.30787	54.0924
8.32323	1.45647	2.30787	53.8918
8.42424	1.45647	2.30787	53.6908
8.52525	1.45647	2.30787	53.4896
8.62626	1.45647	2.30787	53.2882
8.72727	1.45647	2.30787	53.0865
8.82828	1.45647	2.30787	52.8848
8.92929	1.45647	2.30787	52.6829
9.0303	1.45647	2.30787	52.4808
9.13131	1.45647	2.30787	52.2787
9.23232	1.45647	2.30787	52.0763
9.33333	1.45647	2.30787	51.8738
9.43434	1.45647	2.30787	51.6711
9.53535	1.45647	2.30787	51.4682
9.63636	1.45647	2.30787	51.2649
9.73737	1.45647	2.30787	51.0613
9.83838	1.45647	2.30787	50.8572
9.93939	1.45647	2.30787	50.6526
10.0404	1.45647	2.30787	50.4472
10.1414	1.45647	2.30787	50.241
10.2424	1.45647	2.30787	50.0336
10.3434	1.45647	2.30787	49.8249
10.4444	1.45647	2.30787	49.6144
10.5455	1.45647	2.30787	49.4019
10.6465	1.45647	2.30787	49.187
10.7475	1.45647	2.30787	48.969
10.8485	1.45647	2.30787	48.7476
10.9495	1.45647	2.30787	48.5221
11.0505	1.45647	2.30787	48.2921
11.1515	1.45647	2.30787	48.057
11.2525	1.45647	2.30787	47.8164
11.3535	1.45647	2.30787	47.57
11.4545	1.45647	2.30787	47.3176
11.5556	1.45647	2.30787	47.0592
11.6566	1.45647	2.30787	46.795
11.7576	1.45647	2.30787	46.5252
11.8586	1.45647	2.30787	46.2503
11.9596	1.45647	2.30787	45.9706
12.0606	1.45647	2.30787	45.6867
12.1616	1.45647	2.30787	45.3991
12.2626	1.45647	2.30787	45.1082
12.3636	1.45647	2.30787	44.8144
12.4646	1.45647	2.30787	44.5181
12.5657	1.45647	2.30787	44.2196
12.6667	1.45647	2.30787	43.919
12.7677	1.45647	2.30787	43.6167
12.8687	1.45647	2.30787	43.3125
12.9697	1.45647	2.30787	43.0066
13.0707	1.45647	2.30787	42.6989
13.1717	1.45647	2.30787	42.3894
13.2727	1.45647	2.30787	42.0777
13.3737	1.45647	2.30787	41.7638
13.4747	1.45647	2.30787	41.4472
13.5758	1.45647	2.30787	41.1277
13.6768	1.45647	2.30787	40.8046
13.7778	1.45647	2.30787	40.4775
13.8788	1.45647	2.30787	40.1456
13.9798	1.45647	2.30787	39.8079
14.0808	1.45647	2.30787	39.4636
14.1818	1.45647	2.30787	39.1112
14.2828	1.45647	2.30787	38.7492
14.3838	1.45647	2.30787	38.3757
14.4848	1.45647	2.30787	37.9884
14.5859	1.45647	2.30787	37.5846
14.6869	1.45647	2.30787	37.1607
14.7879	1.45647	2.30787	36.7125
14.8889	1.45647	2.30787	36.2347
14.9899	1.45647	2.30787	35.7208
15.0909	1.45647	2.30787	35.1627
15.1919	1.45647	2.30787	34.5503
15.2929	1.45647	2.30787	33.871
15.3939	1.45647	2.30787	33.1089
15.4949	1.45647	2.30787	32.244
15.596	1.45647	2.30787	31.2506
15.697	1.45647	2.30787	30.0957
15.798	1.45647	2.30787	28.736
15.899	1.45647	2.30787	27.1085
16	1.45647	2.30787	-inf
6	1.47073	2.35882	57.7708
6.10101	1.47073	2.35882	57.6692
6.20202	1.47073	2.35882	57.5618
6.30303	1.47073	2.35882	57.4464
6.40404	1.47073	2.35882	57.3215
6.50505	1.47073	2.35882	57.1866
6.60606	1.47073	2.35882	57.0418
6.70707	1.47073	2.35882	56.8878
6.80808	1.47073	2.35882	56.7255
6.90909	1.47073	2.35882	56.5561
7.0101	1.47073	2.35882	56.3806
7.11111	1.47073	2.35882	56.2
7.21212	1.47073	2.35882	56.0153
7.31313	1.47073	2.35882	55.8272
7.41414	1.47073	2.35882	55.6362
7.51515	1.47073	2.35882	55.4431
7.61616	1.47073	2.35882	55.2481
7.71717	1.47073	2.35882	55.0517
7.81818	1.47073	2.35882	54.8542
7.91919	1.47073	2.35882	54.6557
8.0202	1.47073	2.35882	54.4565
8.12121	1.47073	2.35882	54.2567
8.22222	1.47073	2.35882	54.0564
8.32323	1.47073	2.35882	53.8557
8.42424	1.47073	2.35882	53.6548
8.52525	1.47073	2.35882	53.4535
8.62626	1.47073	2.35882	53.2521
8.72727	1.47073	2.35882	53.0505
8.82828	1.47073	2.35882	52.8487
8.92929	1.47073	2.35882	52.6468
9.0303	1.47073	2.35882	52.4448
9.13131	1.47073	2.35882	52.2426
9.23232	1.47073	2.35882	52.0402
9.33333	1.47073	2.35882	51.8377
9.43434	1.47073	2.35882	51.6349
9.53535	1.47073	2.35882	51.4319
9.63636	1.47073	2.35882	51.2287
9.73737	1.47073	2.35882	51.025
9.83838	1.47073	2.35882	50.8208
9.93939	1.47073	2.35882	50.6161
10.0404	1.47073	2.35882	50.4107
10.1414	1.47073	2.35882	50.2043
10.2424	1.47073	2.35882	49.9968
10.3434	1.47073	2.35882	49.7879
10.4444	1.47073	2.35882	49.5772
10.5455	1.47073	2.35882	49.3645
10.6465	1.47073	2.35882	49.1492
10.7475	1.47073	2.35882	48.9309
10.8485	1.47073	2.35882	48.7091
10.9495	1.47073	2.35882	48.4832
11.0505	1.47073	2.35882	48.2527
11.1515	1.47073	2.35882	48.0171
11.2525	1.47073	2.35882	47.776
11.3535	1.47073	2.35882	47.529
11.4545	1.47073	2.35882	47.2761
11.5556	1.47073	2.35882	47.0172
11.6566	1.47073	2.35882	46.7525
11.7576	1.47073	2.35882	46.4823
11.8586	1.47073	2.35882	46.2069
11.9596	1.47073	2.35882	45.9268
12.0606	1.47073	2.35882	45.6426
12.1616	1.47073	2.35882	45.3547
12.2626	1.47073	2.35882	45.0636
12.3636	1.47073	2.35882	44.7696
12.4646	1.47073	2.35882	44.4731
12.5657	1.47073	2.35882	44.1745
12.6667	1.47073	2.35882	43.8738
12.7677	1.47073	2.35882	43.5713
12.8687	1.47073	2.35882	43.2671
12.9697	1.47073	2.35882	42.9612
13.0707	1.47073	2.35882	42.6534
13.1717	1.47073	2.35882	42.3438
13.2727	1.47073	2.35882	42.0322
13.3737	1.47073	2.35882	41.7182
13.4747	1.47073	2.35882	41.4016
13.5758	1.47073	2.35882	41.0821
13.6768	1.47073	2.35882	40.759
13.7778	1.47073	2.35882	40.4319
13.8788	1.47073	2.35882	40.0999
13.9798	1.47073	2.35882	39.7623
14.0808	1.47073	2.35882	39.4179
14.1818	1.47073	2.35882	39.0655
14.2828	1.47073	2.35882	38.7035
14.3838	1.47073	2.35882	38.33
14.4848	1.47073	2.35882	37.9428
14.5859	1.47073	2.35882	37.5389
14.6869	1.47073	2.35882	37.115
14.7879	1.47073	2.35882	36.6668
14.8889	1.47073	2.35882	36.189
14.9899	1.47073	2.35882	35.6751
15.0909	1.47073	2.35882	35.117
15.1919	1.47073	2.35882	34.5046
15.2929	1.47073	2.35882	33.8253
15.3939	1.47073	2.35882	33.0632
15.4949	1.47073	2.35882	32.1983
15.596	1.47073	2.35882	31.2049
15.697	1.47073	2.35882	30.05
15.798	1.47073	2.35882	28.6904
15.899	1.47073	2.35882	27.0628
16	1.47073	2.35882	-inf
6	1.485	2.41569	57.7407
6.10101	1.485	2.41569	57.6387
6.20202	1.485	2.41569	57.5309
6.30303	1.485	2.41569	57.4152
6.40404	1.485	2.41569	57.2901
6.50505	1.485	2.41569	57.1551
6.60606	1.485	2.41569	57.0101
6.70707	1.485	2.41569	56.856
6.80808	1.485	2.41569	56.6936
6.90909	1.485	2.41569	56.5241
7.0101	1.485	2.41569	56.3485
7.11111	1.485	2.41569	56.1679
7.21212	1.485	2.41569	55.9831
7.31313	1.485	2.41569	55.7949
7.41414	1.485	2.41569	55.604
7.51515	1.485	2.41569	55.4108
7.61616	1.485	2.41569	55.2159
7.71717	1.485	2.41569	55.0194
7.81818	1.485	2.41569	54.8219
7.91919	1.485	2.41569	54.6234
8.0202	1.485	2.41569	54.4242
8.12121	1.485	2.41569	54.2244
8.22222	1.485	2.41569	54.0241
8.32323	1.485	2.41569	53.8234
8.42424	1.485	2.41569	53.6224
8.52525	1.485	2.41569	53.4212
8.62626	1.485	2.41569	53.2198
8.72727	1.485	2.41569	53.0181
8.82828	1.485	2.41569	52.8164
8.92929	1.485	2.41569	52.6144
9.0303	1.485	2.41569	52.4124
9.13131	1.485	2.41569	52.2102
9.23232	1.485	2.41569	52.0078
9.33333	1.485	2.41569	51.8052
9.43434	1.485	2.41569	51.6025
9.53535	1.485	2.41569	51.3994
9.63636	1.485	2.41569	51.1961
9.73737	1.485	2.41569	50.9924
9.83838	1.485	2.41569	50.7882
9.93939	1.485	2.41569	50.5834
10.0404	1.485	2.41569	50.3778
10.1414	1.485	2.41569	50.1713
10.2424	1.485	2.41569	49.9636
10.3434	1.485	2.41569	49.7545
10.4444	1.485	2.41569	49.5437
10.5455	1.485	2.41569	49.3307
10.6465	1.485	2.41569	49.1151
10.7475	1.485	2.41569	48.8965
10.8485	1.485	2.41569	48.6743
10.9495	1.485	2.41569	48.4479
11.0505	1.485	2.41569	48.2169
11.1515	1.485	2.41569	47.9808
11.2525	1.485	2.41569	47.7391
11.3535	1.485	2.41569	47.4916
11.4545	1.485	2.41569	47.2381
11.5556	1.485	2.41569	46.9787
11.6566	1.485	2.41569	46.7135
11.7576	1.485	2.41569	46.4427
11.8586	1.485	2.41569	46.1669
11.9596	1.485	2.41569	45.8865
12.0606	1.485	2.41569	45.6019
12.1616	1.485	2.41569	45.3137
12.2626	1.485	2.41569	45.0223
12.3636	1.485	2.41569	44.7281
12.4646	1.485	2.41569	44.4315
12.5657	1.485	2.41569	44.1327
12.6667	1.485	2.41569	43.832
12.7677	1.485	2.41569	43.5294
12.8687	1.485	2.41569	43.2251
12.9697	1.485	2.41569	42.9191
13.0707	1.485	2.41569	42.6113
13.1717	1.485	2.41569	42.3017
13.2727	1.485	2.41569	41.99
13.3737	1.485	2.41569	41.676
13.4747	1.485	2.41569	41.3594
13.5758	1.485	2.41569	41.0398
13.6768	1.485	2.41569	40.7168
13.7778	1.485	2.41569	40.3896
13.8788	1.485	2.41569	40.0576
13.9798	1.485	2.41569	39.72
14.0808	1.485	2.41569	39.3756
14.1818	1.485	2.41569	39.0232
14.2828	1.485	2.41569	38.6612
14.3838	1.485	2.41569	38.2877
14.4848	1.485	2.41569	37.9005
14.5859	1.485	2.41569	37.4966
14.6869	1.485	2.41569	37.0727
14.7879	1.485	2.41569	36.6245
14.8889	1.485	2.41569	36.1467
14.9899	1.485	2.41569	35.6328
15.0909	1.485	2.41569	35.0747
15.1919	1.485	2.41569	34.4623
15.2929	1.485	2.41569	33.783
15.3939	1.485	2.41569	33.0209
15.4949	1.485	2.41569	32.156
15.596	1.485	2.41569	31.1626
15.697	1.485	2.41569	30.0077
15.798	1.485	2.41569	28.648
15.899	1.485	2.41569	27.0205
16	1.485	2.41569	-inf
6	1.49926	2.46752	57.7044
6.10101	1.49926	2.46752	57.602
6.20202	1.49926	2.46752	57.4938
6.30303	1.49926	2.46752	57.3778
6.40404	1.49926	2.46752	57.2525
6.50505	1.49926	2.46752	57.1172
6.60606	1.49926	2.46752	56.9721
6.70707	1.49926	2.46752	56.8178
6.80808	1.49926	2.46752	56.6554
6.90909	1.49926	2.46752	56.4858
7.0101	1.49926	2.46752	56.3102
7.11111	1.49926	2.46752	56.1295
7.21212	1.49926	2.46752	55.9447
7.31313	1.49926	2.46752	55.7565
7.41414	1.49926	2.46752	55.5655
7.51515	1.49926	2.46752	55.3723
7.61616	1.49926	2.46752	55.1773
7.71717	1.49926	2.46752	54.9809
7.81818	1.49926	2.46752	54.7833
7.91919	1.49926	2.46752	54.5848
8.0202	1.49926	2.46752	54.3856
8.12121	1.49926	2.46752	54.1858
8.22222	1.49926	2.46752	53.9855
8.32323	1.49926	2.46752	53.7848
8.42424	1.49926	2.46752	53.5838
8.52525	1.49926	2.46752	53.3826
8.62626	1.49926	2.46752	53.1812
8.72727	1.49926	2.46752	52.9795
8.82828	1.49926	2.46752	52.7778
8.92929	1.49926	2.46752	52.5758
9.0303	1.49926	2.46752	52.3737
9.13131	1.49926	2.46752	52.1715
9.23232	1.49926	2.46752	51.9691
9.33333	1.49926	2.46752	51.7665
9.43434	1.49926	2.46752	51.5637
9.53535	1.49926	2.46752	51.3607
9.63636	1.49926	2.46752	51.1573
9.73737	1.49926	2.46752	50.9535
9.83838	1.49926	2.46752	50.7492
9.93939	1.49926	2.46752	50.5443
10.0404	1.49926	2.46752	50.3387
10.1414	1.49926	2.46752	50.1321
10.2424	1.49926	2.46752	49.9242
10.3434	1.49926	2.46752	49.715
10.4444	1.49926	2.46752	49.5039
10.5455	1.49926	2.46752	49.2906
10.6465	1.49926	2.46752	49.0748
10.7475	1.49926	2.46752	48.8558
10.8485	1.49926	2.46752	48.6332
10.9495	1.49926	2.46752	48.4064
11.0505	1.49926	2.46752	48.175
11.1515	1.49926	2.46752	47.9383
11.2525	1.49926	2.46752	47.6961
11.3535	1.49926	2.46752	47.4481
11.4545	1.49926	2.46752	47.1941
11.5556	1.49926	2.46752	46.9341
11.6566	1.49926	2.46752	46.6684
11.7576	1.49926	2.46752	46.3972
11.8586	1.49926	2.46752	46.121
11.9596	1.49926	2.46752	45.8402
12.0606	1.49926	2.46752	45.5553
12.1616	1.49926	2.46752	45.2668
12.2626	1.49926	2.46752	44.9752
12.3636	1.49926	2.46752	44.6808
12.4646	1.49926	2.46752	44.384
12.5657	1.49926	2.46752	44.0851
12.6667	1.49926	2.46752	43.7842
12.7677	1.49926	2.46752	43.4816
12.8687	1.49926	2.46752	43.1772
12.9697	1.49926	2.46752	42.8711
13.0707	1.49926	2.46752	42.5633
13.1717	1.49926	2.46752	42.2536
13.2727	1.49926	2.46752	41.9419
13.3737	1.49926	2.46752	41.6279
13.4747	1.49926	2.46752	41.3113
13.5758	1.49926	2.46752	40.9917
13.6768	1.49926	2.46752	40.6686
13.7778	1.49926	2.46752	40.3415
13.8788	1.49926	2.46752	40.0095
13.9798	1.49926	2.46752	39.6719
14.0808	1.49926	2.46752	39.3275
14.1818	1.49926	2.46752	38.975
14.2828	1.49926	2.46752	38.613
14.3838	1.49926	2.46752	38.2396
14.4848	1.49926	2.46752	37.8523
14.5859	1.49926	2.46752	37.4485
14.6869	1.49926	2.46752	37.0246
14.7879	1.49926	2.46752	36.5763
14.8889	1.49926	2.46752	36.0985
14.9899	1.49926	2.46752	35.5846
15.0909	1.49926	2.46752	35.0265
15.1919	1.49926	2.46752	34.4141
15.2929	1.49926	2.46752	33.7348
15.3939	1.49926	2.46752	32.9727
15.4949	1.49926	2.46752	32.1078
15.596	1.49926	2.46752	31.1144
15.697	1.49926	2.46752	29.9596
15.798	1.49926	2.46752	28.5999
15.899	1.49926	2.46752	26.9723
16	1.49926	2.46752	-inf
6	1.51353	2.52545	57.6713
6.10101	1.51353	2.52545	57.5686
6.20202	1.51353	2.52545	57.4602
6.30303	1.51353	2.52545	57.3439
6.40404	1.51353	2.52545	57.2184
6.50505	1.51353	2.52545	57.0829
6.60606	1.51353	2.52545	56.9377
6.70707	1.51353	2.52545	56.7833
6.80808	1.51353	2.52545	56.6207
6.90909	1.51353	2.52545	56.4511
7.0101	1.51353	2.52545	56.2754
7.11111	1.51353	2.52545	56.0947
7.21212	1.51353	2.52545	55.9098
7.31313	1.51353	2.52545	55.7216
7.41414	1.51353	2.52545	55.5306
7.51515	1.51353	2.52545	55.3374
7.61616	1.51353	2.52545	55.1424
7.71717	1.51353	2.52545	54.946
7.81818	1.51353	2.52545	54.7484
7.91919	1.51353	2.52545	54.5499
8.0202	1.51353	2.52545	54.3506
8.12121	1.51353	2.52545	54.1508
8.22222	1.51353	2.52545	53.9505
8.32323	1.51353	2.52545	53.7498
8.42424	1.51353	2.52545	53.5489
8.52525	1.51353	2.52545	53.3476
8.62626	1.51353	2.52545	53.1462
8.72727	1.51353	2.52545	52.9445
8.82828	1.51353	2.52545	52.7427
8.92929	1.51353	2.52545	52.5408
9.0303	1.51353	2.52545	52.3387
9.13131	1.51353	2.52545	52.1364
9.23232	1.51353	2.52545	51.934
9.33333	1.51353	2.52545	51.7314
9.43434	1.51353	2.52545	51.5286
9.53535	1.51353	2.52545	51.3255
9.63636	1.51353	2.52545	51.1221
9.73737	1.51353	2.52545	50.9182
9.83838	1.51353	2.52545	50.7139
9.93939	1.51353	2.52545	50.5089
10.0404	1.51353	2.52545	50.3031
10.1414	1.51353	2.52545	50.0964
10.2424	1.51353	2.52545	49.8884
10.3434	1.51353	2.52545	49.679
10.4444	1.51353	2.52545	49.4677
10.5455	1.51353	2.52545	49.2542
10.6465	1.51353	2.52545	49.038
10.7475	1.51353	2.52545	48.8187
10.8485	1.51353	2.52545	48.5957
10.9495	1.51353	2.52545	48.3685
11.0505	1.51353	2.52545	48.1365
11.1515	1.51353	2.52545	47.8993
11.2525	1.51353	2.52545	47.6566
11.3535	1.51353	2.52545	47.408
11.4545	1.51353	2.52545	47.1534
11.5556	1.51353	2.52545	46.8929
11.6566	1.51353	2.52545	46.6266
11.7576	1.51353	2.52545	46.355
11.8586	1.51353	2.52545	46.0783
11.9596	1.51353	2.52545	45.7971
12.0606	1.51353	2.52545	45.5119
12.1616	1.51353	2.52545	45.2232
12.2626	1.51353	2.52545	44.9313
12.3636	1.51353	2.52545	44.6367
12.4646	1.51353	2.52545	44.3397
12.5657	1.51353	2.52545	44.0407
12.6667	1.51353	2.52545	43.7397
12.7677	1.51353	2.52545	43.437
12.8687	1.51353	2.52545	43.1325
12.9697	1.51353	2.52545	42.8264
13.0707	1.51353	2.52545	42.5185
13.1717	1.51353	2.52545	42.2088
13.2727	1.51353	2.52545	41.8971
13.3737	1.51353	2.52545	41.583
13.4747	1.51353	2.52545	41.2664
13.5758	1.51353	2.52545	40.9468
13.6768	1.51353	2.52545	40.6237
13.7778	1.51353	2.52545	40.2966
13.8788	1.51353	2.52545	39.9646
13.9798	1.51353	2.52545	39.6269
14.0808	1.51353	2.52545	39.2825
14.1818	1.51353	2.52545	38.9301
14.2828	1.51353	2.52545	38.5681
14.3838	1.51353	2.52545	38.1946
14.4848	1.51353	2.52545	37.8074
14.5859	1.51353	2.52545	37.4035
14.6869	1.51353	2.52545	36.9796
14.7879	1.51353	2.52545	36.5314
14.8889	1.51353	2.52545	36.0536
14.9899	1.51353	2.52545	35.5397
15.0909	1.51353	2.52545	34.9816
15.1919	1.51353	2.52545	34.3692
15.2929	1.51353	2.52545	33.6899
15.3939	1.51353	2.52545	32.9278
15.4949	1.51353	2.52545	32.0629
15.596	1.51353	2.52545	31.0695
15.697	1.51353	2.52545	29.9146
15.798	1.51353	2.52545	28.5549
15.899	1.51353	2.52545	26.9274
16	1.51353	2.52545	-inf
6	1.52779	2.58403	57.6367
6.10101	1.52779	2.58403	57.5336
6.20202	1.52779	2.58403	57.4249
6.30303	1.52779	2.58403	57.3084
6.40404	1.52779	2.58403	57.1827
6.50505	1.52779	2.58403	57.0471
6.60606	1.52779	2.58403	56.9017
6.70707	1.52779	2.58403	56.7472
6.80808	1.52779	2.58403	56.5845
6.90909	1.52779	2.58403	56.4148
7.0101	1.52779	2.58403	56.2391
7.11111	1.52779	2.58403	56.0583
7.21212	1.52779	2.58403	55.8735
7.31313	1.52779	2.58403	55.6852
7.41414	1.52779	2.58403	55.4942
7.51515	1.52779	2.58403	55.301
7.61616	1.52779	2.58403	55.106
7.71717	1.52779	2.58403	54.9095
7.81818	1.52779	2.58403	54.7119
7.91919	1.52779	2.58403	54.5134
8.0202	1.52779	2.58403	54.3142
8.12121	1.52779	2.58403	54.1143
8.22222	1.52779	2.58403	53.914
8.32323	1.52779	2.58403	53.7133
8.42424	1.52779	2.58403	53.5124
8.52525	1.52779	2.58403	53.3111
8.62626	1.52779	2.58403	53.1097
8.72727	1.52779	2.58403	52.908
8.82828	1.52779	2.58403	52.7062
8.92929	1.52779	2.58403	52.5042
9.0303	1.52779	2.58403	52.3021
9.13131	1.52779	2.58403	52.0999
9.23232	1.52779	2.58403	51.8974
9.33333	1.52779	2.58403	51.6948
9.43434	1.52779	2.58403	51.492
9.53535	1.52779	2.58403	51.2888
9.63636	1.52779	2.58403	51.0853
9.73737	1.52779	2.58403	50.8814
9.83838	1.52779	2.58403	50.677
9.93939	1.52779	2.58403	50.472
10.0404	1.52779	2.58403	50.2661
10.1414	1.52779	2.58403	50.0592
10.2424	1.52779	2.58403	49.8511
10.3434	1.52779	2.58403	49.6414
10.4444	1.52779	2.58403	49.4299
10.5455	1.52779	2.58403	49.2162
10.6465	1.52779	2.58403	48.9997
10.7475	1.52779	2.58403	48.78
10.8485	1.52779	2.58403	48.5566
10.9495	1.52779	2.58403	48.3289
11.0505	1.52779	2.58403	48.0965
11.1515	1.52779	2.58403	47.8588
11.2525	1.52779	2.58403	47.6155
11.3535	1.52779	2.58403	47.3663
11.4545	1.52779	2.58403	47.1112
11.5556	1.52779	2.58403	46.8501
11.6566	1.52779	2.58403	46.5834
11.7576	1.52779	2.58403	46.3112
11.8586	1.52779	2.58403	46.0341
11.9596	1.52779	2.58403	45.7526
12.0606	1.52779	2.58403	45.467
12.1616	1.52779	2.58403	45.178
12.2626	1.52779	2.58403	44.8859
12.3636	1.52779	2.58403	44.5911
12.4646	1.52779	2.58403	44.294
12.5657	1.52779	2.58403	43.9948
12.6667	1.52779	2.58403	43.6937
12.7677	1.52779	2.58403	43.3909
12.8687	1.52779	2.58403	43.0864
12.9697	1.52779	2.58403	42.7802
13.0707	1.52779	2.58403	42.4723
13.1717	1.52779	2.58403	42.1625
13.2727	1.52779	2.58403	41.8507
13.3737	1.52779	2.58403	41.5367
13.4747	1.52779	2.58403	41.22
13.5758	1.52779	2.58403	40.9004
13.6768	1.52779	2.58403	40.5773
13.7778	1.52779	2.58403	40.2501
13.8788	1.52779	2.58403	39.9182
13.9798	1.52779	2.58403	39.5805
14.0808	1.52779	2.58403	39.2361
14.1818	1.52779	2.58403	38.8837
14.2828	1.52779	2.58403	38.5217
14.3838	1.52779	2.58403	38.1482
14.4848	1.52779	2.58403	37.7609
14.5859	1.52779	2.58403	37.3571
14.6869	1.52779	2.58403	36.9332
14.7879	1.52779	2.58403	36.4849
14.8889	1.52779	2.58403	36.0071
14.9899	1.52779	2.58403	35.4932
15.0909	1.52779	2.58403	34.9351
15.1919	1.52779	2.58403	34.3227
15.2929	1.52779	2.58403	33.6434
15.3939	1.52779	2.58403	32.8813
15.4949	1.52779	2.58403	32.0164
15.596	1.52779	2.58403	31.023
15.697	1.52779	2.58403	29.8681
15.798	1.52779	2.58403	28.5085
15.899	1.52779	2.58403	26.8809
16	1.52779	2.58403	-inf
6	1.54206	2.64333	57.6002
6.10101	1.54206	2.64333	57.4968
6.20202	1.54206	2.64333	57.3879
6.30303	1.54206	2.64333	57.2711
6.40404	1.54206	2.64333	57.1452
6.50505	1.54206	2.64333	57.0094
6.60606	1.54206	2.64333	56.8639
6.70707	1.54206	2.64333	56.7093
6.80808	1.54206	2.64333	56.5466
6.90909	1.54206	2.64333	56.3768
7.0101	1.54206	2.64333	56.2011
7.11111	1.54206	2.64333	56.0203
7.21212	1.54206	2.64333	55.8354
7.31313	1.54206	2.64333	55.6471
7.41414	1.54206	2.64333	55.4561
7.51515	1.54206	2.64333	55.2628
7.61616	1.54206	2.64333	55.0678
7.71717	1.54206	2.64333	54.8713
7.81818	1.54206	2.64333	54.6737
7.91919	1.54206	2.64333	54.4752
8.0202	1.54206	2.64333	54.276
8.12121	1.54206	2.64333	54.0761
8.22222	1.54206	2.64333	53.8758
8.32323	1.54206	2.64333	53.6751
8.42424	1.54206	2.64333	53.4741
8.52525	1.54206	2.64333	53.2729
8.62626	1.54206	2.64333	53.0714
8.72727	1.54206	2.64333	52.8698
8.82828	1.54206	2.64333	52.668
8.92929	1.54206	2.64333	52.466
9.0303	1.54206	2.64333	52.2639
9.13131	1.54206	2.64333	52.0616
9.23232	1.54206	2.64333	51.8591
9.33333	1.54206	2.64333	51.6565
9.43434	1.54206	2.64333	51.4536
9.53535	1.54206	2.64333	51.2504
9.63636	1.54206	2.64333	51.0469
9.73737	1.54206	2.64333	50.8429
9.83838	1.54206	2.64333	50.6385
9.93939	1.54206	2.64333	50.4333
10.0404	1.54206	2.64333	50.2273
10.1414	1.54206	2.64333	50.0203
10.2424	1.54206	2.64333	49.812
10.3434	1.54206	2.64333	49.6022
10.4444	1.54206	2.64333	49.3905
10.5455	1.54206	2.64333	49.1764
10.6465	1.54206	2.64333	48.9596
10.7475	1.54206	2.64333	48.7396
10.8485	1.54206	2.64333	48.5158
10.9495	1.54206	2.64333	48.2877
11.0505	1.54206	2.64333	48.0547
11.1515	1.54206	2.64333	47.8165
11.2525	1.54206	2.64333	47.5726
11.3535	1.54206	2.64333	47.3229
11.4545	1.54206	2.64333	47.0672
11.5556	1.54206	2.64333	46.8056
11.6566	1.54206	2.64333	46.5383
11.7576	1.54206	2.64333	46.2657
11.8586	1.54206	2.64333	45.9882
11.9596	1.54206	2.64333	45.7063
12.0606	1.54206	2.64333	45.4204
12.1616	1.54206	2.64333	45.1311
12.2626	1.54206	2.64333	44.8387
12.3636	1.54206	2.64333	44.5438
12.4646	1.54206	2.64333	44.2465
12.5657	1.54206	2.64333	43.9472
12.6667	1.54206	2.64333	43.646
12.7677	1.54206	2.64333	43.3431
12.8687	1.54206	2.64333	43.0385
12.9697	1.54206	2.64333	42.7322
13.0707	1.54206	2.64333	42.4243
13.1717	1.54206	2.64333	42.1145
13.2727	1.54206	2.64333	41.8027
13.3737	1.54206	2.64333	41.4886
13.4747	1.54206	2.64333	41.1719
13.5758	1.54206	2.64333	40.8523
13.6768	1.54206	2.64333	40.5292
13.7778	1.54206	2.64333	40.202
13.8788	1.54206	2.64333	39.87
13.9798	1.54206	2.64333	39.5324
14.0808	1.54206	2.64333	39.1879
14.1818	1.54206	2.64333	38.8355
14.2828	1.54206	2.64333	38.4735
14.3838	1.54206	2.64333	38.1
14.4848	1.54206	2.64333	37.7128
14.5859	1.54206	2.64333	37.3089
14.6869	1.54206	2.64333	36.885
14.7879	1.54206	2.64333	36.4368
14.8889	1.54206	2.64333	35.959
14.9899	1.54206	2.64333	35.4451
15.0909	1.54206	2.64333	34.887
15.1919	1.54206	2.64333	34.2746
15.2929	1.54206	2.64333	33.5952
15.3939	1.54206	2.64333	32.8332
15.4949	1.54206	2.64333	31.9682
15.596	1.54206	2.64333	30.9749
15.697	1.54206	2.64333	29.82
15.798	1.54206	2.64333	28.4603
15.899	1.54206	2.64333	26.8328
16	1.54206	2.64333	-inf
6	1.55632	2.70908	57.5671
6.10101	1.55632	2.70908	57.4635
6.20202	1.55632	2.70908	57.3543
6.30303	1.55632	2.70908	57.2374
6.40404	1.55632	2.70908	57.1113
6.50505	1.55632	2.70908	56.9753
6.60606	1.55632	2.70908	56.8297
6.70707	1.55632	2.70908	56.675
6.80808	1.55632	2.70908	56.5123
6.90909	1.55632	2.70908	56.3424
7.0101	1.55632	2.70908	56.1666
7.11111	1.55632	2.70908	55.9858
7.21212	1.55632	2.70908	55.8009
7.31313	1.55632	2.70908	55.6126
7.41414	1.55632	2.70908	55.4215
7.51515	1.55632	2.70908	55.2283
7.61616	1.55632	2.70908	55.0332
7.71717	1.55632	2.70908	54.8368
7.81818	1.55632	2.70908	54.6392
7.91919	1.55632	2.70908	54.4406
8.0202	1.55632	2.70908	54.2414
8.12121	1.55632	2.70908	54.0415
8.22222	1.55632	2.70908	53.8412
8.32323	1.55632	2.70908	53.6405
8.42424	1.55632	2.70908	53.4395
8.52525	1.55632	2.70908	53.2383
8.62626	1.55632	2.70908	53.0368
8.72727	1.55632	2.70908	52.8351
8.82828	1.55632	2.70908	52.6333
8.92929	1.55632	2.70908	52.4313
9.0303	1.55632	2.70908	52.2292
9.13131	1.55632	2.70908	52.0269
9.23232	1.55632	2.70908	51.8244
9.33333	1.55632	2.70908	51.6218
9.43434	1.55632	2.70908	51.4188
9.53535	1.55632	2.70908	51.2156
9.63636	1.55632	2.70908	51.012
9.73737	1.55632	2.70908	50.808
9.83838	1.55632	2.70908	50.6035
9.93939	1.55632	2.70908	50.3982
10.0404	1.55632	2.70908	50.1921
10.1414	1.55632	2.70908	49.985
10.2424	1.55632	2.70908	49.7766
10.3434	1.55632	2.70908	49.5665
10.4444	1.55632	2.70908	49.3545
10.5455	1.55632	2.70908	49.1402
10.6465	1.55632	2.70908	48.9231
10.7475	1.55632	2.70908	48.7027
10.8485	1.55632	2.70908	48.4785
10.9495	1.55632	2.70908	48.2499
11.0505	1.55632	2.70908	48.0164
11.1515	1.55632	2.70908	47.7776
11.2525	1.55632	2.70908	47.5332
11.3535	1.55632	2.70908	47.2829
11.4545	1.55632	2.70908	47.0266
11.5556	1.55632	2.70908	46.7644
11.6566	1.55632	2.70908	46.4966
11.7576	1.55632	2.70908	46.2235
11.8586	1.55632	2.70908	45.9456
11.9596	1.55632	2.70908	45.6632
12.0606	1.55632	2.70908	45.377
12.1616	1.55632	2.70908	45.0874
12.2626	1.55632	2.70908	44.7948
12.3636	1.55632	2.70908	44.4997
12.4646	1.55632	2.70908	44.2022
12.5657	1.55632	2.70908	43.9027
12.6667	1.55632	2.70908	43.6015
12.7677	1.55632	2.70908	43.2984
12.8687	1.55632	2.70908	42.9938
12.9697	1.55632	2.70908	42.6875
13.0707	1.55632	2.70908	42.3795
13.1717	1.55632	2.70908	42.0697
13.2727	1.55632	2.70908	41.7578
13.3737	1.55632	2.70908	41.4437
13.4747	1.55632	2.70908	41.127
13.5758	1.55632	2.70908	40.8074
13.6768	1.55632	2.70908	40.4843
13.7778	1.55632	2.70908	40.1571
13.8788	1.55632	2.70908	39.8251
13.9798	1.55632	2.70908	39.4874
14.0808	1.55632	2.70908	39.143
14.1818	1.55632	2.70908	38.7906
14.2828	1.55632	2.70908	38.4285
14.3838	1.55632	2.70908	38.0551
14.4848	1.55632	2.70908	37.6678
14.5859	1.55632	2.70908	37.2639
14.6869	1.55632	2.70908	36.84
14.7879	1.55632	2.70908	36.3918
14.8889	1.55632	2.70908	35.914
14.9899	1.55632	2.70908	35.4001
15.0909	1.55632	2.70908	34.842
15.1919	1.55632	2.70908	34.2296
15.2929	1.55632	2.70908	33.5503
15.3939	1.55632	2.70908	32.7882
15.4949	1.55632	2.70908	31.9233
15.596	1.55632	2.70908	30.9299
15.697	1.55632	2.70908	29.775
15.798	1.55632	2.70908	28.4153
15.899	1.55632	2.70908	26.7878
16	1.55632	2.70908	-inf
6	1.57059	2.77	57.5264
6.10101	1.57059	2.77	57.4226
6.20202	1.57059	2.77	57.3131
6.30303	1.57059	2.77	57.196
6.40404	1.57059	2.77	57.0697
6.50505	1.57059	2.77	56.9337
6.60606	1.57059	2.77	56.7879
6.70707	1.57059	2.77	56.6332
6.80808	1.57059	2.77	56.4703
6.90909	1.57059	2.77	56.3004
7.0101	1.57059	2.77	56.1246
7.11111	1.57059	2.77	55.9437
7.21212	1.57059	2.77	55.7588
7.31313	1.57059	2.77	55.5704
7.41414	1.57059	2.77	55.3794
7.51515	1.57059	2.77	55.1861
7.61616	1.57059	2.77	54.9911
7.71717	1.57059	2.77	54.7946
7.81818	1.57059	2.77	54.597
7.91919	1.57059	2.77	54.3984
8.0202	1.57059	2.77	54.1992
8.12121	1.57059	2.77	53.9993
8.22222	1.57059	2.77	53.799
8.32323	1.57059	2.77	53.5983
8.42424	1.57059	2.77	53.3973
8.52525	1.57059	2.77	53.196
8.62626	1.57059	2.77	52.9946
8.72727	1.57059	2.77	52.7929
8.82828	1.57059	2.77	52.5911
8.92929	1.57059	2.77	52.3891
9.0303	1.57059	2.77	52.1869
9.13131	1.57059	2.77	51.9846
9.23232	1.57059	2.77	51.7821
9.33333	1.57059	2.77	51.5794
9.43434	1.57059	2.77	51.3765
9.53535	1.57059	2.77	51.1732
9.63636	1.57059	2.77	50.9696
9.73737	1.57059	2.77	50.7655
9.83838	1.57059	2.77	50.5609
9.93939	1.57059	2.77	50.3555
10.0404	1.57059	2.77	50.1493
10.1414	1.57059	2.77	49.9421
10.2424	1.57059	2.77	49.7335
10.3434	1.57059	2.77	49.5232
10.4444	1.57059	2.77	49.311
10.5455	1.57059	2.77	49.0964
10.6465	1.57059	2.77	48.879
10.7475	1.57059	2.77	48.6582
10.8485	1.57059	2.77	48.4336
10.9495	1.57059	2.77	48.2045
11.0505	1.57059	2.77	47.9706
11.1515	1.57059	2.77	47.7313
11.2525	1.57059	2.77	47.4863
11.3535	1.57059	2.77	47.2354
11.4545	1.57059	2.77	46.9785
11.5556	1.57059	2.77	46.7158
11.6566	1.57059	2.77	46.4475
11.7576	1.57059	2.77	46.1739
11.8586	1.57059	2.77	45.8956
11.9596	1.57059	2.77	45.6129
12.0606	1.57059	2.77	45.3263
12.1616	1.57059	2.77	45.0365
12.2626	1.57059	2.77	44.7436
12.3636	1.57059	2.77	44.4483
12.4646	1.57059	2.77	44.1507
12.5657	1.57059	2.77	43.8511
12.6667	1.57059	2.77	43.5497
12.7677	1.57059	2.77	43.2466
12.8687	1.57059	2.77	42.9419
12.9697	1.57059	2.77	42.6355
13.0707	1.57059	2.77	42.3275
13.1717	1.57059	2.77	42.0176
13.2727	1.57059	2.77	41.7058
13.3737	1.57059	2.77	41.3916
13.4747	1.57059	2.77	41.0749
13.5758	1.57059	2.77	40.7553
13.6768	1.57059	2.77	40.4321
13.7778	1.57059	2.77	40.1049
13.8788	1.57059	2.77	39.7729
13.9798	1.57059	2.77	39.4353
14.0808	1.57059	2.77	39.0908
14.1818	1.57059	2.77	38.7384
14.2828	1.57059	2.77	38.3764
14.3838	1.57059	2.77	38.0029
14.4848	1.57059	2.77	37.6156
14.5859	1.57059	2.77	37.2118
14.6869	1.57059	2.77	36.7879
14.7879	1.57059	2.77	36.3396
14.8889	1.57059	2.77	35.8618
14.9899	1.57059	2.77	35.3479
15.0909	1.57059	2.77	34.7898
15.1919	1.57059	2.77	34.1774
15.2929	1.57059	2.77	33.4981
15.3939	1.57059	2.77	32.736
15.4949	1.57059	2.77	31.8711
15.596	1.57059	2.77	30.8777
15.697	1.57059	2.77	29.7228
15.798	1.57059	2.77	28.3632
15.899	1.57059	2.77	26.7356
16	1.57059	2.77	-inf
6	1.58485	2.83758	57.4889
6.10101	1.58485	2.83758	57.3848
6.20202	1.58485	2.83758	57.2752
6.30303	1.58485	2.83758	57.1579
6.40404	1.58485	2.83758	57.0315
6.50505	1.58485	2.83758	56.8953
6.60606	1.58485	2.83758	56.7495
6.70707	1.58485	2.83758	56.5946
6.80808	1.58485	2.83758	56.4317
6.90909	1.58485	2.83758	56.2617
7.0101	1.58485	2.83758	56.0859
7.11111	1.58485	2.83758	55.905
7.21212	1.58485	2.83758	55.72
7.31313	1.58485	2.83758	55.5316
7.41414	1.58485	2.83758	55.3406
7.51515	1.58485	2.83758	55.1473
7.61616	1.58485	2.83758	54.9522
7.71717	1.58485	2.83758	54.7558
7.81818	1.58485	2.83758	54.5581
7.91919	1.58485	2.83758	54.3596
8.0202	1.58485	2.83758	54.1603
8.12121	1.58485	2.83758	53.9605
8.22222	1.58485	2.83758	53.7602
8.32323	1.58485	2.83758	53.5595
8.42424	1.58485	2.83758	53.3584
8.52525	1.58485	2.83758	53.1572
8.62626	1.58485	2.83758	52.9557
8.72727	1.58485	2.83758	52.754
8.82828	1.58485	2.83758	52.5522
8.92929	1.58485	2.83758	52.3502
9.0303	1.58485	2.83758	52.148
9.13131	1.58485	2.83758	51.9457
9.23232	1.58485	2.83758	51.7432
9.33333	1.58485	2.83758	51.5404
9.43434	1.58485	2.83758	51.3374
9.53535	1.58485	2.83758	51.1342
9.63636	1.58485	2.83758	50.9305
9.73737	1.58485	2.83758	50.7264
9.83838	1.58485	2.83758	50.5216
9.93939	1.58485	2.83758	50.3162
10.0404	1.58485	2.83758	50.1099
10.1414	1.58485	2.83758	49.9025
10.2424	1.58485	2.83758	49.6937
10.3434	1.58485	2.83758	49.4833
10.4444	1.58485	2.83758	49.2708
10.5455	1.58485	2.83758	49.056
10.6465	1.58485	2.83758	48.8382
10.7475	1.58485	2.83758	48.6171
10.8485	1.58485	2.83758	48.392
10.9495	1.58485	2.83758	48.1624
11.0505	1.58485	2.83758	47.9279
11.1515	1.58485	2.83758	47.6881
11.2525	1.58485	2.83758	47.4425
11.3535	1.58485	2.83758	47.191
11.4545	1.58485	2.83758	46.9336
11.5556	1.58485	2.83758	46.6703
11.6566	1.58485	2.83758	46.4015
11.7576	1.58485	2.83758	46.1274
11.8586	1.58485	2.83758	45.8486
11.9596	1.58485	2.83758	45.5655
12.0606	1.58485	2.83758	45.2787
12.1616	1.58485	2.83758	44.9885
12.2626	1.58485	2.83758	44.6955
12.3636	1.58485	2.83758	44.3999
12.4646	1.58485	2.83758	44.1021
12.5657	1.58485	2.83758	43.8024
12.6667	1.58485	2.83758	43.5009
12.7677	1.58485	2.83758	43.1977
12.8687	1.58485	2.83758	42.893
12.9697	1.58485	2.83758	42.5865
13.0707	1.58485	2.83758	42.2785
13.1717	1.58485	2.83758	41.9685
13.2727	1.58485	2.83758	41.6567
13.3737	1.58485	2.83758	41.3425
13.4747	1.58485	2.83758	41.0258
13.5758	1.58485	2.83758	40.7061
13.6768	1.58485	2.83758	40.383
13.7778	1.58485	2.83758	40.0558
13.8788	1.58485	2.83758	39.7238
13.9798	1.58485	2.83758	39.3861
14.0808	1.58485	2.83758	39.0417
14.1818	1.58485	2.83758	38.6892
14.2828	1.58485	2.83758	38.3272
14.3838	1.58485	2.83758	37.9537
14.4848	1.58485	2.83758	37.5664
14.5859	1.58485	2.83758	37.1626
14.6869	1.58485	2.83758	36.7387
14.7879	1.58485	2.83758	36.2904
14.8889	1.58485	2.83758	35.8126
14.9899	1.58485	2.83758	35.2987
15.0909	1.58485	2.83758	34.7406
15.1919	1.58485	2.83758	34.1282
15.2929	1.58485	2.83758	33.4489
15.3939	1.58485	2.83758	32.6868
15.4949	1.58485	2.83758	31.8219
15.596	1.58485	2.83758	30.8285
15.697	1.58485	2.83758	29.6736
15.798	1.58485	2.83758	28.3139
15.899	1.58485	2.83758	26.6864
16	1.58485	2.83758	-inf
6	1.59912	2.9062	57.4489
6.10101	1.59912	2.9062	57.3445
6.20202	1.59912	2.9062	57.2347
6.30303	1.59912	2.9062	57.1172
6.40404	1.59912	2.9062	56.9906
6.50505	1.59912	2.9062	56.8543
6.60606	1.59912	2.9062	56.7084
6.70707	1.59912	2.9062	56.5535
6.80808	1.59912	2.9062	56.3905
6.90909	1.59912	2.9062	56.2205
7.0101	1.59912	2.9062	56.0446
7.11111	1.59912	2.9062	55.8637
7.21212	1.59912	2.9062	55.6787
7.31313	1.59912	2.9062	55.4903
7.41414	1.59912	2.9062	55.2993
7.51515	1.59912	2.9062	55.106
7.61616	1.59912	2.9062	54.9109
7.71717	1.59912	2.9062	54.7144
7.81818	1.59912	2.9062	54.5168
7.91919	1.59912	2.9062	54.3182
8.0202	1.59912	2.9062	54.119
8.12121	1.59912	2.9062	53.9191
8.22222	1.59912	2.9062	53.7188
8.32323	1.59912	2.9062	53.5181
8.42424	1.59912	2.9062	53.3171
8.52525	1.59912	2.9062	53.1158
8.62626	1.59912	2.9062	52.9143
8.72727	1.59912	2.9062	52.7126
8.82828	1.59912	2.9062	52.5108
8.92929	1.59912	2.9062	52.3087
9.0303	1.59912	2.9062	52.1066
9.13131	1.59912	2.9062	51.9042
9.23232	1.59912	2.9062	51.7017
9.33333	1.59912	2.9062	51.4989
9.43434	1.59912	2.9062	51.2959
9.53535	1.59912	2.9062	51.0926
9.63636	1.59912	2.9062	50.8889
9.73737	1.59912	2.9062	50.6847
9.83838	1.59912	2.9062	50.4799
9.93939	1.59912	2.9062	50.2743
10.0404	1.59912	2.9062	50.0679
10.1414	1.59912	2.9062	49.8604
10.2424	1.59912	2.9062	49.6514
10.3434	1.59912	2.9062	49.4408
10.4444	1.59912	2.9062	49.2281
10.5455	1.59912	2.9062	49.0129
10.6465	1.59912	2.9062	48.7948
10.7475	1.59912	2.9062	48.5733
10.8485	1.59912	2.9062	48.3478
10.9495	1.59912	2.9062	48.1178
11.0505	1.59912	2.9062	47.8827
11.1515	1.59912	2.9062	47.6423
11.2525	1.59912	2.9062	47.3961
11.3535	1.59912	2.9062	47.144
11.4545	1.59912	2.9062	46.886
11.5556	1.59912	2.9062	46.6222
11.6566	1.59912	2.9062	46.3528
11.7576	1.59912	2.9062	46.0783
11.8586	1.59912	2.9062	45.7991
11.9596	1.59912	2.9062	45.5156
12.0606	1.59912	2.9062	45.2284
12.1616	1.59912	2.9062	44.938
12.2626	1.59912	2.9062	44.6447
12.3636	1.59912	2.9062	44.349
12.4646	1.59912	2.9062	44.0511
12.5657	1.59912	2.9062	43.7512
12.6667	1.59912	2.9062	43.4496
12.7677	1.59912	2.9062	43.1463
12.8687	1.59912	2.9062	42.8415
12.9697	1.59912	2.9062	42.535
13.0707	1.59912	2.9062	42.2269
13.1717	1.59912	2.9062	41.9169
13.2727	1.59912	2.9062	41.605
13.3737	1.59912	2.9062	41.2908
13.4747	1.59912	2.9062	40.9741
13.5758	1.59912	2.9062	40.6544
13.6768	1.59912	2.9062	40.3313
13.7778	1.59912	2.9062	40.0041
13.8788	1.59912	2.9062	39.672
13.9798	1.59912	2.9062	39.3344
14.0808	1.59912	2.9062	38.9899
14.1818	1.59912	2.9062	38.6375
14.2828	1.59912	2.9062	38.2755
14.3838	1.59912	2.9062	37.902
14.4848	1.59912	2.9062	37.5147
14.5859	1.59912	2.9062	37.1108
14.6869	1.59912	2.9062	36.6869
14.7879	1.59912	2.9062	36.2387
14.8889	1.59912	2.9062	35.7609
14.9899	1.59912	2.9062	35.247
15.0909	1.59912	2.9062	34.6889
15.1919	1.59912	2.9062	34.0765
15.2929	1.59912	2.9062	33.3972
15.3939	1.59912	2.9062	32.6351
15.4949	1.59912	2.9062	31.7701
15.596	1.59912	2.9062	30.7768
15.697	1.59912	2.9062	29.6219
15.798	1.59912	2.9062	28.2622
15.899	1.59912	2.9062	26.6347
16	1.59912	2.9062	-inf
6	1.61338	2.98181	57.4121
6.10101	1.61338	2.98181	57.3076
6.20202	1.61338	2.98181	57.1975
6.30303	1.61338	2.98181	57.0799
6.40404	1.61338	2.98181	56.9532
6.50505	1.61338	2.98181	56.8169
6.60606	1.61338	2.98181	56.6709
6.70707	1.61338	2.98181	56.5159
6.80808	1.61338	2.98181	56.3528
6.90909	1.61338	2.98181	56.1828
7.0101	1.61338	2.98181	56.0069
7.11111	1.61338	2.98181	55.8259
7.21212	1.61338	2.98181	55.6409
7.31313	1.61338	2.98181	55.4525
7.41414	1.61338	2.98181	55.2614
7.51515	1.61338	2.98181	55.0681
7.61616	1.61338	2.98181	54.873
7.71717	1.61338	2.98181	54.6766
7.81818	1.61338	2.98181	54.4789
7.91919	1.61338	2.98181	54.2804
8.0202	1.61338	2.98181	54.0811
8.12121	1.61338	2.98181	53.8812
8.22222	1.61338	2.98181	53.6809
8.32323	1.61338	2.98181	53.4802
8.42424	1.61338	2.98181	53.2792
8.52525	1.61338	2.98181	53.0779
8.62626	1.61338	2.98181	52.8764
8.72727	1.61338	2.98181	52.6747
8.82828	1.61338	2.98181	52.4728
8.92929	1.61338	2.98181	52.2708
9.0303	1.61338	2.98181	52.0686
9.13131	1.61338	2.98181	51.8663
9.23232	1.61338	2.98181	51.6637
9.33333	1.61338	2.98181	51.4609
9.43434	1.61338	2.98181	51.2579
9.53535	1.61338	2.98181	51.0545
9.63636	1.61338	2.98181	50.8507
9.73737	1.61338	2.98181	50.6465
9.83838	1.61338	2.98181	50.4416
9.93939	1.61338	2.98181	50.236
10.0404	1.61338	2.98181	50.0294
10.1414	1.61338	2.98181	49.8217
10.2424	1.61338	2.98181	49.6126
10.3434	1.61338	2.98181	49.4018
10.4444	1.61338	2.98181	49.1888
10.5455	1.61338	2.98181	48.9733
10.6465	1.61338	2.98181	48.7549
10.7475	1.61338	2.98181	48.5329
10.8485	1.61338	2.98181	48.307
10.9495	1.61338	2.98181	48.0764
11.0505	1.61338	2.98181	47.8409
11.1515	1.61338	2.98181	47.5998
11.2525	1.61338	2.98181	47.353
11.3535	1.61338	2.98181	47.1003
11.4545	1.61338	2.98181	46.8417
11.5556	1.61338	2.98181	46.5773
11.6566	1.61338	2.98181	46.3074
11.7576	1.61338	2.98181	46.0324
11.8586	1.61338	2.98181	45.7527
11.9596	1.61338	2.98181	45.4689
12.0606	1.61338	2.98181	45.1813
12.1616	1.61338	2.98181	44.8906
12.2626	1.61338	2.98181	44.5971
12.3636	1.61338	2.98181	44.3012
12.4646	1.61338	2.98181	44.0031
12.5657	1.61338	2.98181	43.7031
12.6667	1.61338	2.98181	43.4014
12.7677	1.61338	2.98181	43.098
12.8687	1.61338	2.98181	42.7931
12.9697	1.61338	2.98181	42.4866
13.0707	1.61338	2.98181	42.1784
13.1717	1.61338	2.98181	41.8684
13.2727	1.61338	2.98181	41.5565
13.3737	1.61338	2.98181	41.2423
13.4747	1.61338	2.98181	40.9255
13.5758	1.61338	2.98181	40.6058
13.6768	1.61338	2.98181	40.2827
13.7778	1.61338	2.98181	39.9554
13.8788	1.61338	2.98181	39.6234
13.9798	1.61338	2.98181	39.2857
14.0808	1.61338	2.98181	38.9413
14.1818	1.61338	2.98181	38.5888
14.2828	1.61338	2.98181	38.2268
14.3838	1.61338	2.98181	37.8533
14.4848	1.61338	2.98181	37.4661
14.5859	1.61338	2.98181	37.0622
14.6869	1.61338	2.98181	36.6383
14.7879	1.61338	2.98181	36.1901
14.8889	1.61338	2.98181	35.7123
14.9899	1.61338	2.98181	35.1984
15.0909	1.61338	2.98181	34.6402
15.1919	1.61338	2.98181	34.0278
15.2929	1.61338	2.98181	33.3485
15.3939	1.61338	2.98181	32.5864
15.4949	1.61338	2.98181	31.7215
15.596	1.61338	2.98181	30.7281
15.697	1.61338	2.98181	29.5733
15.798	1.61338	2.98181	28.2136
15.899	1.61338	2.98181	26.586
16	1.61338	2.98181	-inf
6	1.62765	3.05272	57.3658
6.10101	1.62765	3.05272	57.261
6.20202	1.62765	3.05272	57.1508
6.30303	1.62765	3.05272	57.033
6.40404	1.62765	3.05272	56.9062
6.50505	1.62765	3.05272	56.7697
6.60606	1.62765	3.05272	56.6236
6.70707	1.62765	3.05272	56.4686
6.80808	1.62765	3.05272	56.3055
6.90909	1.62765	3.05272	56.1354
7.0101	1.62765	3.05272	55.9595
7.11111	1.62765	3.05272	55.7785
7.21212	1.62765	3.05272	55.5935
7.31313	1.62765	3.05272	55.4051
7.41414	1.62765	3.05272	55.2139
7.51515	1.62765	3.05272	55.0206
7.61616	1.62765	3.05272	54.8256
7.71717	1.62765	3.05272	54.6291
7.81818	1.62765	3.05272	54.4314
7.91919	1.62765	3.05272	54.2329
8.0202	1.62765	3.05272	54.0336
8.12121	1.62765	3.05272	53.8337
8.22222	1.62765	3.05272	53.6334
8.32323	1.62765	3.05272	53.4327
8.42424	1.62765	3.05272	53.2316
8.52525	1.62765	3.05272	53.0304
8.62626	1.62765	3.05272	52.8288
8.72727	1.62765	3.05272	52.6272
8.82828	1.62765	3.05272	52.4253
8.92929	1.62765	3.05272	52.2232
9.0303	1.62765	3.05272	52.021
9.13131	1.62765	3.05272	51.8187
9.23232	1.62765	3.05272	51.6161
9.33333	1.62765	3.05272	51.4133
9.43434	1.62765	3.05272	51.2102
9.53535	1.62765	3.05272	51.0067
9.63636	1.62765	3.05272	50.8029
9.73737	1.62765	3.05272	50.5986
9.83838	1.62765	3.05272	50.3937
9.93939	1.62765	3.05272	50.1879
10.0404	1.62765	3.05272	49.9813
10.1414	1.62765	3.05272	49.7734
10.2424	1.62765	3.05272	49.5641
10.3434	1.62765	3.05272	49.3531
10.4444	1.62765	3.05272	49.1399
10.5455	1.62765	3.05272	48.9241
10.6465	1.62765	3.05272	48.7053
10.7475	1.62765	3.05272	48.483
10.8485	1.62765	3.05272	48.2565
10.9495	1.62765	3.05272	48.0255
11.0505	1.62765	3.05272	47.7894
11.1515	1.62765	3.05272	47.5478
11.2525	1.62765	3.05272	47.3004
11.3535	1.62765	3.05272	47.0471
11.4545	1.62765	3.05272	46.7879
11.5556	1.62765	3.05272	46.523
11.6566	1.62765	3.05272	46.2525
11.7576	1.62765	3.05272	45.977
11.8586	1.62765	3.05272	45.6969
11.9596	1.62765	3.05272	45.4127
12.0606	1.62765	3.05272	45.1249
12.1616	1.62765	3.05272	44.8339
12.2626	1.62765	3.05272	44.5402
12.3636	1.62765	3.05272	44.244
12.4646	1.62765	3.05272	43.9458
12.5657	1.62765	3.05272	43.6457
12.6667	1.62765	3.05272	43.3439
12.7677	1.62765	3.05272	43.0405
12.8687	1.62765	3.05272	42.7355
12.9697	1.62765	3.05272	42.4289
13.0707	1.62765	3.05272	42.1207
13.1717	1.62765	3.05272	41.8107
13.2727	1.62765	3.05272	41.4987
13.3737	1.62765	3.05272	41.1845
13.4747	1.62765	3.05272	40.8677
13.5758	1.62765	3.05272	40.548
13.6768	1.62765	3.05272	40.2248
13.7778	1.62765	3.05272	39.8976
13.8788	1.62765	3.05272	39.5655
13.9798	1.62765	3.05272	39.2278
14.0808	1.62765	3.05272	38.8834
14.1818	1.62765	3.05272	38.531
14.2828	1.62765	3.05272	38.1689
14.3838	1.62765	3.05272	37.7954
14.4848	1.62765	3.05272	37.4082
14.5859	1.62765	3.05272	37.0043
14.6869	1.62765	3.05272	36.5804
14.7879	1.62765	3.05272	36.1322
14.8889	1.62765	3.05272	35.6544
14.9899	1.62765	3.05272	35.1404
15.0909	1.62765	3.05272	34.5823
15.1919	1.62765	3.05272	33.9699
15.2929	1.62765	3.05272	33.2906
15.3939	1.62765	3.05272	32.5285
15.4949	1.62765	3.05272	31.6636
15.596	1.62765	3.05272	30.6702
15.697	1.62765	3.05272	29.5153
15.798	1.62765	3.05272	28.1557
15.899	1.62765	3.05272	26.5281
16	1.62765	3.05272	-inf
6	1.64191	3.13692	57.3294
6.10101	1.64191	3.13692	57.2245
6.20202	1.64191	3.13692	57.1141
6.30303	1.64191	3.13692	56.9962
6.40404	1.64191	3.13692	56.8693
6.50505	1.64191	3.13692	56.7327
6.60606	1.64191	3.13692	56.5866
6.70707	1.64191	3.13692	56.4315
6.80808	1.64191	3.13692	56.2684
6.90909	1.64191	3.13692	56.0983
7.0101	1.64191	3.13692	55.9222
7.11111	1.64191	3.13692	55.7413
7.21212	1.64191	3.13692	55.5562
7.31313	1.64191	3.13692	55.3678
7.41414	1.64191	3.13692	55.1767
7.51515	1.64191	3.13692	54.9834
7.61616	1.64191	3.13692	54.7883
7.71717	1.64191	3.13692	54.5918
7.81818	1.64191	3.13692	54.3941
7.91919	1.64191	3.13692	54.1956
8.0202	1.64191	3.13692	53.9963
8.12121	1.64191	3.13692	53.7964
8.22222	1.64191	3.13692	53.5961
8.32323	1.64191	3.13692	53.3953
8.42424	1.64191	3.13692	53.1943
8.52525	1.64191	3.13692	52.993
8.62626	1.64191	3.13692	52.7915
8.72727	1.64191	3.13692	52.5898
8.82828	1.64191	3.13692	52.3879
8.92929	1.64191	3.13692	52.1859
9.0303	1.64191	3.13692	51.9837
9.13131	1.64191	3.13692	51.7813
9.23232	1.64191	3.13692	51.5786
9.33333	1.64191	3.13692	51.3758
9.43434	1.64191	3.13692	51.1727
9.53535	1.64191	3.13692	50.9692
9.63636	1.64191	3.13692	50.7653
9.73737	1.64191	3.13692	50.5609
9.83838	1.64191	3.13692	50.3559
9.93939	1.64191	3.13692	50.1501
10.0404	1.64191	3.13692	49.9433
10.1414	1.64191	3.13692	49.7353
10.2424	1.64191	3.13692	49.5258
10.3434	1.64191	3.13692	49.3145
10.4444	1.64191	3.13692	49.1011
10.5455	1.64191	3.13692	48.885
10.6465	1.64191	3.13692	48.6658
10.7475	1.64191	3.13692	48.443
10.8485	1.64191	3.13692	48.2161
10.9495	1.64191	3.13692	47.9845
11.0505	1.64191	3.13692	47.7478
11.1515	1.64191	3.13692	47.5056
11.2525	1.64191	3.13692	47.2576
11.3535	1.64191	3.13692	47.0037
11.4545	1.64191	3.13692	46.7438
11.5556	1.64191	3.13692	46.4783
11.6566	1.64191	3.13692	46.2073
11.7576	1.64191	3.13692	45.9313
11.8586	1.64191	3.13692	45.6508
11.9596	1.64191	3.13692	45.3662
12.0606	1.64191	3.13692	45.078
12.1616	1.64191	3.13692	44.7867
12.2626	1.64191	3.13692	44.4927
12.3636	1.64191	3.13692	44.1964
12.4646	1.64191	3.13692	43.898
12.5657	1.64191	3.13692	43.5978
12.6667	1.64191	3.13692	43.2958
12.7677	1.64191	3.13692	42.9923
12.8687	1.64191	3.13692	42.6873
12.9697	1.64191	3.13692	42.3806
13.0707	1.64191	3.13692	42.0724
13.1717	1.64191	3.13692	41.7623
13.2727	1.64191	3.13692	41.4503
13.3737	1.64191	3.13692	41.1361
13.4747	1.64191	3.13692	40.8193
13.5758	1.64191	3.13692	40.4996
13.6768	1.64191	3.13692	40.1764
13.7778	1.64191	3.13692	39.8491
13.8788	1.64191	3.13692	39.5171
13.9798	1.64191	3.13692	39.1794
14.0808	1.64191	3.13692	38.8349
14.1818	1.64191	3.13692	38.4825
14.2828	1.64191	3.13692	38.1204
14.3838	1.64191	3.13692	37.7469
14.4848	1.64191	3.13692	37.3597
14.5859	1.64191	3.13692	36.9558
14.6869	1.64191	3.13692	36.5319
14.7879	1.64191	3.13692	36.0837
14.8889	1.64191	3.13692	35.6059
14.9899	1.64191	3.13692	35.092
15.0909	1.64191	3.13692	34.5339
15.1919	1.64191	3.13692	33.9215
15.2929	1.64191	3.13692	33.2421
15.3939	1.64191	3.13692	32.48
15.4949	1.64191	3.13692	31.6151
15.596	1.64191	3.13692	30.6217
15.697	1.64191	3.13692	29.4669
15.798	1.64191	3.13692	28.1072
15.899	1.64191	3.13692	26.4796
16	1.64191	3.13692	-inf
6	1.65618	3.21653	57.2822
6.10101	1.65618	3.21653	57.1771
6.20202	1.65618	3.21653	57.0666
6.30303	1.65618	3.21653	56.9486
6.40404	1.65618	3.21653	56.8216
6.50505	1.65618	3.21653	56.6849
6.60606	1.65618	3.21653	56.5387
6.70707	1.65618	3.21653	56.3835
6.80808	1.65618	3.21653	56.2204
6.90909	1.65618	3.21653	56.0502
7.0101	1.65618	3.21653	55.8742
7.11111	1.65618	3.21653	55.6932
7.21212	1.65618	3.21653	55.5081
7.31313	1.65618	3.21653	55.3197
7.41414	1.65618	3.21653	55.1285
7.51515	1.65618	3.21653	54.9352
7.61616	1.65618	3.21653	54.7401
7.71717	1.65618	3.21653	54.5436
7.81818	1.65618	3.21653	54.346
7.91919	1.65618	3.21653	54.1474
8.0202	1.65618	3.21653	53.9481
8.12121	1.65618	3.21653	53.7482
8.22222	1.65618	3.21653	53.5479
8.32323	1.65618	3.21653	53.3472
8.42424	1.65618	3.21653	53.1461
8.52525	1.65618	3.21653	52.9448
8.62626	1.65618	3.21653	52.7433
8.72727	1.65618	3.21653	52.5416
8.82828	1.65618	3.21653	52.3397
8.92929	1.65618	3.21653	52.1377
9.0303	1.65618	3.21653	51.9354
9.13131	1.65618	3.21653	51.733
9.23232	1.65618	3.21653	51.5304
9.33333	1.65618	3.21653	51.3275
9.43434	1.65618	3.21653	51.1243
9.53535	1.65618	3.21653	50.9208
9.63636	1.65618	3.21653	50.7169
9.73737	1.65618	3.21653	50.5124
9.83838	1.65618	3.21653	50.3073
9.93939	1.65618	3.21653	50.1014
10.0404	1.65618	3.21653	49.8945
10.1414	1.65618	3.21653	49.6863
10.2424	1.65618	3.21653	49.4766
10.3434	1.65618	3.21653	49.2651
10.4444	1.65618	3.21653	49.0514
10.5455	1.65618	3.21653	48.835
10.6465	1.65618	3.21653	48.6155
10.7475	1.65618	3.21653	48.3923
10.8485	1.65618	3.21653	48.1649
10.9495	1.65618	3.21653	47.9328
11.0505	1.65618	3.21653	47.6955
11.1515	1.65618	3.21653	47.4527
11.2525	1.65618	3.21653	47.2041
11.3535	1.65618	3.21653	46.9495
11.4545	1.65618	3.21653	46.6891
11.5556	1.65618	3.21653	46.4229
11.6566	1.65618	3.21653	46.1514
11.7576	1.65618	3.21653	45.8749
11.8586	1.65618	3.21653	45.594
11.9596	1.65618	3.21653	45.309
12.0606	1.65618	3.21653	45.0205
12.1616	1.65618	3.21653	44.7289
12.2626	1.65618	3.21653	44.4347
12.3636	1.65618	3.21653	44.1382
12.4646	1.65618	3.21653	43.8397
12.5657	1.65618	3.21653	43.5393
12.6667	1.65618	3.21653	43.2373
12.7677	1.65618	3.21653	42.9337
12.8687	1.65618	3.21653	42.6286
12.9697	1.65618	3.21653	42.3219
13.0707	1.65618	3.21653	42.0136
13.1717	1.65618	3.21653	41.7035
13.2727	1.65618	3.21653	41.3915
13.3737	1.65618	3.21653	41.0772
13.4747	1.65618	3.21653	40.7604
13.5758	1.65618	3.21653	40.4407
13.6768	1.65618	3.21653	40.1175
13.7778	1.65618	3.21653	39.7902
13.8788	1.65618	3.21653	39.4582
13.9798	1.65618	3.21653	39.1204
14.0808	1.65618	3.21653	38.776
14.1818	1.65618	3.21653	38.4235
14.2828	1.65618	3.21653	38.0615
14.3838	1.65618	3.21653	37.688
14.4848	1.65618	3.21653	37.3007
14.5859	1.65618	3.21653	36.8969
14.6869	1.65618	3.21653	36.4729
14.7879	1.65618	3.21653	36.0247
14.8889	1.65618	3.21653	35.5469
14.9899	1.65618	3.21653	35.033
15.0909	1.65618	3.21653	34.4749
15.1919	1.65618	3.21653	33.8625
15.2929	1.65618	3.21653	33.1832
15.3939	1.65618	3.21653	32.4211
15.4949	1.65618	3.21653	31.5562
15.596	1.65618	3.21653	30.5628
15.697	1.65618	3.21653	29.4079
15.798	1.65618	3.21653	28.0482
15.899	1.65618	3.21653	26.4207
16	1.65618	3.21653	-inf
6	1.67044	3.2976	57.23
6.10101	1.67044	3.2976	57.1248
6.20202	1.67044	3.2976	57.0141
6.30303	1.67044	3.2976	56.896
6.40404	1.67044	3.2976	56.7688
6.50505	1.67044	3.2976	56.6321
6.60606	1.67044	3.2976	56.4858
6.70707	1.67044	3.2976	56.3306
6.80808	1.67044	3.2976	56.1674
6.90909	1.67044	3.2976	55.9972
7.0101	1.67044	3.2976	55.8211
7.11111	1.67044	3.2976	55.6401
7.21212	1.67044	3.2976	55.455
7.31313	1.67044	3.2976	55.2666
7.41414	1.67044	3.2976	55.0754
7.51515	1.67044	3.2976	54.8821
7.61616	1.67044	3.2976	54.687
7.71717	1.67044	3.2976	54.4905
7.81818	1.67044	3.2976	54.2928
7.91919	1.67044	3.2976	54.0943
8.0202	1.67044	3.2976	53.895
8.12121	1.67044	3.2976	53.6951
8.22222	1.67044	3.2976	53.4947
8.32323	1.67044	3.2976	53.294
8.42424	1.67044	3.2976	53.093
8.52525	1.67044	3.2976	52.8917
8.62626	1.67044	3.2976	52.6901
8.72727	1.67044	3.2976	52.4884
8.82828	1.67044	3.2976	52.2865
8.92929	1.67044	3.2976	52.0845
9.0303	1.67044	3.2976	51.8822
9.13131	1.67044	3.2976	51.6798
9.23232	1.67044	3.2976	51.4771
9.33333	1.67044	3.2976	51.2742
9.43434	1.67044	3.2976	51.071
9.53535	1.67044	3.2976	50.8675
9.63636	1.67044	3.2976	50.6635
9.73737	1.67044	3.2976	50.4589
9.83838	1.67044	3.2976	50.2537
9.93939	1.67044	3.2976	50.0477
10.0404	1.67044	3.2976	49.8406
10.1414	1.67044	3.2976	49.6323
10.2424	1.67044	3.2976	49.4225
10.3434	1.67044	3.2976	49.2107
10.4444	1.67044	3.2976	48.9967
10.5455	1.67044	3.2976	48.78
10.6465	1.67044	3.2976	48.5601
10.7475	1.67044	3.2976	48.3365
10.8485	1.67044	3.2976	48.1086
10.9495	1.67044	3.2976	47.876
11.0505	1.67044	3.2976	47.6381
11.1515	1.67044	3.2976	47.3947
11.2525	1.67044	3.2976	47.1455
11.3535	1.67044	3.2976	46.8903
11.4545	1.67044	3.2976	46.6293
11.5556	1.67044	3.2976	46.3625
11.6566	1.67044	3.2976	46.0905
11.7576	1.67044	3.2976	45.8135
11.8586	1.67044	3.2976	45.5321
11.9596	1.67044	3.2976	45.2468
12.0606	1.67044	3.2976	44.958
12.1616	1.67044	3.2976	44.6662
12.2626	1.67044	3.2976	44.3718
12.3636	1.67044	3.2976	44.0751
12.4646	1.67044	3.2976	43.7763
12.5657	1.67044	3.2976	43.4759
12.6667	1.67044	3.2976	43.1737
12.7677	1.67044	3.2976	42.8701
12.8687	1.67044	3.2976	42.5649
12.9697	1.67044	3.2976	42.2581
13.0707	1.67044	3.2976	41.9498
13.1717	1.67044	3.2976	41.6397
13.2727	1.67044	3.2976	41.3276
13.3737	1.67044	3.2976	41.0133
13.4747	1.67044	3.2976	40.6965
13.5758	1.67044	3.2976	40.3768
13.6768	1.67044	3.2976	40.0535
13.7778	1.67044	3.2976	39.7263
13.8788	1.67044	3.2976	39.3942
13.9798	1.67044	3.2976	39.0565
14.0808	1.67044	3.2976	38.7121
14.1818	1.67044	3.2976	38.3596
14.2828	1.67044	3.2976	37.9976
14.3838	1.67044	3.2976	37.6241
14.4848	1.67044	3.2976	37.2368
14.5859	1.67044	3.2976	36.8329
14.6869	1.67044	3.2976	36.409
14.7879	1.67044	3.2976	35.9608
14.8889	1.67044	3.2976	35.483
14.9899	1.67044	3.2976	34.9691
15.0909	1.67044	3.2976	34.411
15.1919	1.67044	3.2976	33.7986
15.2929	1.67044	3.2976	33.1192
15.3939	1.67044	3.2976	32.3571
15.4949	1.67044	3.2976	31.4922
15.596	1.67044	3.2976	30.4988
15.697	1.67044	3.2976	29.344
15.798	1.67044	3.2976	27.9843
15.899	1.67044	3.2976	26.3567
16	1.67044	3.2976	-inf
6	1.68471	3.39279	57.1891
6.10101	1.68471	3.39279	57.0838
6.20202	1.68471	3.39279	56.973
6.30303	1.68471	3.39279	56.8548
6.40404	1.68471	3.39279	56.7276
6.50505	1.68471	3.39279	56.5907
6.60606	1.68471	3.39279	56.4444
6.70707	1.68471	3.39279	56.2891
6.80808	1.68471	3.39279	56.1259
6.90909	1.68471	3.39279	55.9557
7.0101	1.68471	3.39279	55.7796
7.11111	1.68471	3.39279	55.5986
7.21212	1.68471	3.39279	55.4135
7.31313	1.68471	3.39279	55.225
7.41414	1.68471	3.39279	55.0339
7.51515	1.68471	3.39279	54.8405
7.61616	1.68471	3.39279	54.6454
7.71717	1.68471	3.39279	54.4489
7.81818	1.68471	3.39279	54.2512
7.91919	1.68471	3.39279	54.0527
8.0202	1.68471	3.39279	53.8534
8.12121	1.68471	3.39279	53.6535
8.22222	1.68471	3.39279	53.4531
8.32323	1.68471	3.39279	53.2524
8.42424	1.68471	3.39279	53.0514
8.52525	1.68471	3.39279	52.8501
8.62626	1.68471	3.39279	52.6485
8.72727	1.68471	3.39279	52.4468
8.82828	1.68471	3.39279	52.2449
8.92929	1.68471	3.39279	52.0428
9.0303	1.68471	3.39279	51.8405
9.13131	1.68471	3.39279	51.6381
9.23232	1.68471	3.39279	51.4354
9.33333	1.68471	3.39279	51.2325
9.43434	1.68471	3.39279	51.0292
9.53535	1.68471	3.39279	50.8256
9.63636	1.68471	3.39279	50.6216
9.73737	1.68471	3.39279	50.417
9.83838	1.68471	3.39279	50.2117
9.93939	1.68471	3.39279	50.0055
10.0404	1.68471	3.39279	49.7983
10.1414	1.68471	3.39279	49.5898
10.2424	1.68471	3.39279	49.3798
10.3434	1.68471	3.39279	49.1678
10.4444	1.68471	3.39279	48.9535
10.5455	1.68471	3.39279	48.7364
10.6465	1.68471	3.39279	48.5161
10.7475	1.68471	3.39279	48.292
10.8485	1.68471	3.39279	48.0636
10.9495	1.68471	3.39279	47.8304
11.0505	1.68471	3.39279	47.592
11.1515	1.68471	3.39279	47.3479
11.2525	1.68471	3.39279	47.098
11.3535	1.68471	3.39279	46.8422
11.4545	1.68471	3.39279	46.5805
11.5556	1.68471	3.39279	46.3132
11.6566	1.68471	3.39279	46.0405
11.7576	1.68471	3.39279	45.7631
11.8586	1.68471	3.39279	45.4812
11.9596	1.68471	3.39279	45.1955
12.0606	1.68471	3.39279	44.9064
12.1616	1.68471	3.39279	44.6143
12.2626	1.68471	3.39279	44.3196
12.3636	1.68471	3.39279	44.0227
12.4646	1.68471	3.39279	43.7238
12.5657	1.68471	3.39279	43.4232
12.6667	1.68471	3.39279	43.121
12.7677	1.68471	3.39279	42.8172
12.8687	1.68471	3.39279	42.512
12.9697	1.68471	3.39279	42.2052
13.0707	1.68471	3.39279	41.8968
13.1717	1.68471	3.39279	41.5866
13.2727	1.68471	3.39279	41.2745
13.3737	1.68471	3.39279	40.9602
13.4747	1.68471	3.39279	40.6434
13.5758	1.68471	3.39279	40.3236
13.6768	1.68471	3.39279	40.0004
13.7778	1.68471	3.39279	39.6731
13.8788	1.68471	3.39279	39.3411
13.9798	1.68471	3.39279	39.0034
14.0808	1.68471	3.39279	38.6589
14.1818	1.68471	3.39279	38.3064
14.2828	1.68471	3.39279	37.9444
14.3838	1.68471	3.39279	37.5709
14.4848	1.68471	3.39279	37.1836
14.5859	1.68471	3.39279	36.7798
14.6869	1.68471	3.39279	36.3558
14.7879	1.68471	3.39279	35.9076
14.8889	1.68471	3.39279	35.4298
14.9899	1.68471	3.39279	34.9159
15.0909	1.68471	3.39279	34.3578
15.1919	1.68471	3.39279	33.7454
15.2929	1.68471	3.39279	33.0661
15.3939	1.68471	3.39279	32.304
15.4949	1.68471	3.39279	31.439
15.596	1.68471	3.39279	30.4457
15.697	1.68471	3.39279	29.2908
15.798	1.68471	3.39279	27.9311
15.899	1.68471	3.39279	26.3036
16	1.68471	3.39279	-inf
6	1.69897	3.48351	-inf
6.10101	1.69897	3.48351	-inf
6.20202	1.69897	3.48351	-inf
6.30303	1.69897	3.48351	-inf
6.40404	1.69897	3.48351	-inf
6.50505	1.69897	3.48351	-inf
6.60606	1.69897	3.48351	-inf
6.70707	1.69897	3.48351	-inf
6.80808	1.69897	3.48351	-inf
6.90909	1.69897	3.48351	-inf
7.0101	1.69897	3.48351	-inf
7.11111	1.69897	3.48351	-inf
7.21212	1.69897	3.48351	-inf
7.31313	1.69897	3.48351	-inf
7.41414	1.69897	3.48351	-inf
7.51515	1.69897	3.48351	-inf
7.61616	1.69897	3.48351	-inf
7.71717	1.69897	3.48351	-inf
7.81818	1.69897	3.48351	-inf
7.91919	1.69897	3.48351	-inf
8.0202	1.69897	3.48351	-inf
8.12121	1.69897	3.48351	-inf
8.22222	1.69897	3.48351	-inf
8.32323	1.69897	3.48351	-inf
8.42424	1.69897	3.48351	-inf
8.52525	1.69897	3.48351	-inf
8.62626	1.69897	3.48351	-inf
8.72727	1.69897	3.48351	-inf
8.82828	1.69897	3.48351	-inf
8.92929	1.69897	3.48351	-inf
9.0303	1.69897	3.48351	-inf
9.13131	1.69897	3.48351	-inf
9.23232	1.69897	3.48351	-inf
9.33333	1.69897	3.48351	-inf
9.43434	1.69897	3.48351	-inf
9.53535	1.69897	3.48351	-inf
9.63636	1.69897	3.48351	-inf
9.73737	1.69897	3.48351	-inf
9.83838	1.69897	3.48351	-inf
9.93939	1.69897	3.48351	-inf
10.0404	1.69897	3.48351	-inf
10.1414	1.69897	3.48351	-inf
10.2424	1.69897	3.48351	-inf
10.3434	1.69897	3.48351	-inf
10.4444	1.69897	3.48351	-inf
10.5455	1.69897	3.48351	-inf
10.6465	1.69897	3.48351	-inf
10.7475	1.69897	3.48351	-inf
10.8485	1.69897	3.48351	-inf
10.9495	1.69897	3.48351	-inf
11.0505	1.69897	3.48351	-inf
11.1515	1.69897	3.48351	-inf
11.2525	1.69897	3.48351	-inf
11.3535	1.69897	3.48351	-inf
11.4545	1.69897	3.48351	-inf
11.5556	1.69897	3.48351	-inf
11.6566	1.69897	3.48351	-inf
11.7576	1.69897	3.48351	-inf
11.8586	1.69897	3.48351	-inf
11.9596	1.69897	3.48351	-inf
12.0606	1.69897	3.48351	-inf
12.1616	1.69897	3.48351	-inf
12.2626	1.69897	3.48351	-inf
12.3636	1.69897	3.48351	-inf
12.4646	1.69897	3.48351	-inf
12.5657	1.69897	3.48351	-inf
12.6667	1.69897	3.48351	-inf
12.7677	1.69897	3.48351	-inf
12.8687	1.69897	3.48351	-inf
12.9697	1.69897	3.48351	-inf
13.0707	1.69897	3.48351	-inf
13.1717	1.69897	3.48351	-inf
13.2727	1.69897	3.48351	-inf
13.3737	1.69897	3.48351	-inf
13.4747	1.69897	3.48351	-inf
13.5758	1.69897	3.48351	-inf
13.6768	1.69897	3.48351	-inf
13.7778	1.69897	3.48351	-inf
13.8788	1.69897	3.48351	-inf
13.9798	1.69897	3.48351	-inf
14.0808	1.69897	3.48351	-inf
14.1818	1.69897	3.48351	-inf
14.2828	1.69897	3.48351	-inf
14.3838	1.69897	3.48351	-inf
14.4848	1.69897	3.48351	-inf
14.5859	1.69897	3.48351	-inf
14.6869	1.69897	3.48351	-inf
14.7879	1.69897	3.48351	-inf
14.8889	1.69897	3.48351	-inf
14.9899	1.69897	3.48351	-inf
15.0909	1.69897	3.48351	-inf
15.1919	1.69897	3.48351	-inf
15.2929	1.69897	3.48351	-inf
15.3939	1.69897	3.48351	-inf
15.4949	1.69897	3.48351	-inf
15.596	1.69897	3.48351	-inf
15.697	1.69897	3.48351	-inf
15.798	1.69897	3.48351	-inf
15.899	1.69897	3.48351	-inf
16	1.69897	3.48351	-inf
