log(E / eV)	log(z / pc)	t / yr	 logQ
6	1	0	49.2222
6.10101	1	0	49.4708
6.20202	1	0	49.6259
6.30303	1	0	49.7069
6.40404	1	0	49.7292
6.50505	1	0	49.7049
6.60606	1	0	49.6437
6.70707	1	0	49.5533
6.80808	1	0	49.4397
6.90909	1	0	49.3078
7.0101	1	0	49.1614
7.11111	1	0	49.0034
7.21212	1	0	48.8362
7.31313	1	0	48.6619
7.41414	1	0	48.4818
7.51515	1	0	48.2971
7.61616	1	0	48.1088
7.71717	1	0	47.9177
7.81818	1	0	47.7244
7.91919	1	0	47.5292
8.0202	1	0	47.3326
8.12121	1	0	47.1349
8.22222	1	0	46.9363
8.32323	1	0	46.7369
8.42424	1	0	46.5371
8.52525	1	0	46.3367
8.62626	1	0	46.1361
8.72727	1	0	45.9351
8.82828	1	0	45.7339
8.92929	1	0	45.5326
9.0303	1	0	45.3311
9.13131	1	0	45.1295
9.23232	1	0	44.9278
9.33333	1	0	44.726
9.43434	1	0	44.5242
9.53535	1	0	44.3224
9.63636	1	0	44.1205
9.73737	1	0	43.9186
9.83838	1	0	43.7166
9.93939	1	0	43.5147
10.0404	1	0	43.3127
10.1414	1	0	43.1107
10.2424	1	0	42.9087
10.3434	1	0	42.7067
10.4444	1	0	42.5047
10.5455	1	0	42.3027
10.6465	1	0	42.1007
10.7475	1	0	41.8987
10.8485	1	0	41.6967
10.9495	1	0	41.4946
11.0505	1	0	41.2926
11.1515	1	0	41.0906
11.2525	1	0	40.8885
11.3535	1	0	40.6865
11.4545	1	0	40.4844
11.5556	1	0	40.2823
11.6566	1	0	40.0802
11.7576	1	0	39.8781
11.8586	1	0	39.676
11.9596	1	0	39.4738
12.0606	1	0	39.2716
12.1616	1	0	39.0693
12.2626	1	0	38.867
12.3636	1	0	38.6646
12.4646	1	0	38.4621
12.5657	1	0	38.2595
12.6667	1	0	38.0567
12.7677	1	0	37.8537
12.8687	1	0	37.6505
12.9697	1	0	37.447
13.0707	1	0	37.243
13.1717	1	0	37.0385
13.2727	1	0	36.8334
13.3737	1	0	36.6275
13.4747	1	0	36.4206
13.5758	1	0	36.2124
13.6768	1	0	36.0026
13.7778	1	0	35.7908
13.8788	1	0	35.5763
13.9798	1	0	35.3586
14.0808	1	0	35.1368
14.1818	1	0	34.9099
14.2828	1	0	34.6764
14.3838	1	0	34.4346
14.4848	1	0	34.1825
14.5859	1	0	33.9172
14.6869	1	0	33.6354
14.7879	1	0	33.3327
14.8889	1	0	33.0036
14.9899	1	0	32.6412
15.0909	1	0	32.2369
15.1919	1	0	31.7795
15.2929	1	0	31.2553
15.3939	1	0	30.6468
15.4949	1	0	29.9318
15.596	1	0	29.0824
15.697	1	0	28.0636
15.798	1	0	26.8308
15.899	1	0	25.3282
16	1	0	23.485
6	1.01426	0.417369	48.9772
6.10101	1.01426	0.417369	49.2258
6.20202	1.01426	0.417369	49.3809
6.30303	1.01426	0.417369	49.4619
6.40404	1.01426	0.417369	49.4842
6.50505	1.01426	0.417369	49.4599
6.60606	1.01426	0.417369	49.3987
6.70707	1.01426	0.417369	49.3083
6.80808	1.01426	0.417369	49.1947
6.90909	1.01426	0.417369	49.0628
7.0101	1.01426	0.417369	48.9164
7.11111	1.01426	0.417369	48.7584
7.21212	1.01426	0.417369	48.5912
7.31313	1.01426	0.417369	48.4169
7.41414	1.01426	0.417369	48.2367
7.51515	1.01426	0.417369	48.0521
7.61616	1.01426	0.417369	47.8638
7.71717	1.01426	0.417369	47.6727
7.81818	1.01426	0.417369	47.4793
7.91919	1.01426	0.417369	47.2842
8.0202	1.01426	0.417369	47.0876
8.12121	1.01426	0.417369	46.8899
8.22222	1.01426	0.417369	46.6912
8.32323	1.01426	0.417369	46.4919
8.42424	1.01426	0.417369	46.292
8.52525	1.01426	0.417369	46.0917
8.62626	1.01426	0.417369	45.891
8.72727	1.01426	0.417369	45.6901
8.82828	1.01426	0.417369	45.4889
8.92929	1.01426	0.417369	45.2876
9.0303	1.01426	0.417369	45.0861
9.13131	1.01426	0.417369	44.8845
9.23232	1.01426	0.417369	44.6828
9.33333	1.01426	0.417369	44.481
9.43434	1.01426	0.417369	44.2792
9.53535	1.01426	0.417369	44.0774
9.63636	1.01426	0.417369	43.8755
9.73737	1.01426	0.417369	43.6736
9.83838	1.01426	0.417369	43.4716
9.93939	1.01426	0.417369	43.2697
10.0404	1.01426	0.417369	43.0677
10.1414	1.01426	0.417369	42.8657
10.2424	1.01426	0.417369	42.6637
10.3434	1.01426	0.417369	42.4617
10.4444	1.01426	0.417369	42.2597
10.5455	1.01426	0.417369	42.0577
10.6465	1.01426	0.417369	41.8557
10.7475	1.01426	0.417369	41.6537
10.8485	1.01426	0.417369	41.4517
10.9495	1.01426	0.417369	41.2496
11.0505	1.01426	0.417369	41.0476
11.1515	1.01426	0.417369	40.8455
11.2525	1.01426	0.417369	40.6435
11.3535	1.01426	0.417369	40.4414
11.4545	1.01426	0.417369	40.2394
11.5556	1.01426	0.417369	40.0373
11.6566	1.01426	0.417369	39.8352
11.7576	1.01426	0.417369	39.6331
11.8586	1.01426	0.417369	39.431
11.9596	1.01426	0.417369	39.2288
12.0606	1.01426	0.417369	39.0266
12.1616	1.01426	0.417369	38.8243
12.2626	1.01426	0.417369	38.622
12.3636	1.01426	0.417369	38.4196
12.4646	1.01426	0.417369	38.2171
12.5657	1.01426	0.417369	38.0145
12.6667	1.01426	0.417369	37.8117
12.7677	1.01426	0.417369	37.6087
12.8687	1.01426	0.417369	37.4055
12.9697	1.01426	0.417369	37.2019
13.0707	1.01426	0.417369	36.998
13.1717	1.01426	0.417369	36.7935
13.2727	1.01426	0.417369	36.5884
13.3737	1.01426	0.417369	36.3825
13.4747	1.01426	0.417369	36.1756
13.5758	1.01426	0.417369	35.9674
13.6768	1.01426	0.417369	35.7576
13.7778	1.01426	0.417369	35.5457
13.8788	1.01426	0.417369	35.3313
13.9798	1.01426	0.417369	35.1136
14.0808	1.01426	0.417369	34.8918
14.1818	1.01426	0.417369	34.6649
14.2828	1.01426	0.417369	34.4314
14.3838	1.01426	0.417369	34.1896
14.4848	1.01426	0.417369	33.9375
14.5859	1.01426	0.417369	33.6722
14.6869	1.01426	0.417369	33.3904
14.7879	1.01426	0.417369	33.0877
14.8889	1.01426	0.417369	32.7586
14.9899	1.01426	0.417369	32.3962
15.0909	1.01426	0.417369	31.9919
15.1919	1.01426	0.417369	31.5345
15.2929	1.01426	0.417369	31.0103
15.3939	1.01426	0.417369	30.4018
15.4949	1.01426	0.417369	29.6868
15.596	1.01426	0.417369	28.8374
15.697	1.01426	0.417369	27.8186
15.798	1.01426	0.417369	26.5858
15.899	1.01426	0.417369	25.0832
16	1.01426	0.417369	23.24
6	1.02853	0.58095	48.8029
6.10101	1.02853	0.58095	49.0514
6.20202	1.02853	0.58095	49.2065
6.30303	1.02853	0.58095	49.2875
6.40404	1.02853	0.58095	49.3098
6.50505	1.02853	0.58095	49.2855
6.60606	1.02853	0.58095	49.2243
6.70707	1.02853	0.58095	49.1339
6.80808	1.02853	0.58095	49.0204
6.90909	1.02853	0.58095	48.8884
7.0101	1.02853	0.58095	48.742
7.11111	1.02853	0.58095	48.584
7.21212	1.02853	0.58095	48.4168
7.31313	1.02853	0.58095	48.2425
7.41414	1.02853	0.58095	48.0624
7.51515	1.02853	0.58095	47.8777
7.61616	1.02853	0.58095	47.6894
7.71717	1.02853	0.58095	47.4983
7.81818	1.02853	0.58095	47.305
7.91919	1.02853	0.58095	47.1098
8.0202	1.02853	0.58095	46.9132
8.12121	1.02853	0.58095	46.7155
8.22222	1.02853	0.58095	46.5169
8.32323	1.02853	0.58095	46.3175
8.42424	1.02853	0.58095	46.1177
8.52525	1.02853	0.58095	45.9173
8.62626	1.02853	0.58095	45.7167
8.72727	1.02853	0.58095	45.5157
8.82828	1.02853	0.58095	45.3145
8.92929	1.02853	0.58095	45.1132
9.0303	1.02853	0.58095	44.9117
9.13131	1.02853	0.58095	44.7101
9.23232	1.02853	0.58095	44.5084
9.33333	1.02853	0.58095	44.3066
9.43434	1.02853	0.58095	44.1048
9.53535	1.02853	0.58095	43.903
9.63636	1.02853	0.58095	43.7011
9.73737	1.02853	0.58095	43.4992
9.83838	1.02853	0.58095	43.2972
9.93939	1.02853	0.58095	43.0953
10.0404	1.02853	0.58095	42.8933
10.1414	1.02853	0.58095	42.6913
10.2424	1.02853	0.58095	42.4893
10.3434	1.02853	0.58095	42.2873
10.4444	1.02853	0.58095	42.0853
10.5455	1.02853	0.58095	41.8833
10.6465	1.02853	0.58095	41.6813
10.7475	1.02853	0.58095	41.4793
10.8485	1.02853	0.58095	41.2773
10.9495	1.02853	0.58095	41.0752
11.0505	1.02853	0.58095	40.8732
11.1515	1.02853	0.58095	40.6712
11.2525	1.02853	0.58095	40.4691
11.3535	1.02853	0.58095	40.2671
11.4545	1.02853	0.58095	40.065
11.5556	1.02853	0.58095	39.8629
11.6566	1.02853	0.58095	39.6608
11.7576	1.02853	0.58095	39.4587
11.8586	1.02853	0.58095	39.2566
11.9596	1.02853	0.58095	39.0544
12.0606	1.02853	0.58095	38.8522
12.1616	1.02853	0.58095	38.6499
12.2626	1.02853	0.58095	38.4476
12.3636	1.02853	0.58095	38.2452
12.4646	1.02853	0.58095	38.0427
12.5657	1.02853	0.58095	37.8401
12.6667	1.02853	0.58095	37.6373
12.7677	1.02853	0.58095	37.4343
12.8687	1.02853	0.58095	37.2311
12.9697	1.02853	0.58095	37.0276
13.0707	1.02853	0.58095	36.8236
13.1717	1.02853	0.58095	36.6191
13.2727	1.02853	0.58095	36.4141
13.3737	1.02853	0.58095	36.2081
13.4747	1.02853	0.58095	36.0012
13.5758	1.02853	0.58095	35.793
13.6768	1.02853	0.58095	35.5832
13.7778	1.02853	0.58095	35.3714
13.8788	1.02853	0.58095	35.1569
13.9798	1.02853	0.58095	34.9392
14.0808	1.02853	0.58095	34.7174
14.1818	1.02853	0.58095	34.4905
14.2828	1.02853	0.58095	34.257
14.3838	1.02853	0.58095	34.0152
14.4848	1.02853	0.58095	33.7631
14.5859	1.02853	0.58095	33.4978
14.6869	1.02853	0.58095	33.216
14.7879	1.02853	0.58095	32.9133
14.8889	1.02853	0.58095	32.5842
14.9899	1.02853	0.58095	32.2218
15.0909	1.02853	0.58095	31.8175
15.1919	1.02853	0.58095	31.3601
15.2929	1.02853	0.58095	30.836
15.3939	1.02853	0.58095	30.2274
15.4949	1.02853	0.58095	29.5124
15.596	1.02853	0.58095	28.663
15.697	1.02853	0.58095	27.6442
15.798	1.02853	0.58095	26.4115
15.899	1.02853	0.58095	24.9088
16	1.02853	0.58095	23.0656
6	1.04279	0.708223	48.7003
6.10101	1.04279	0.708223	48.9489
6.20202	1.04279	0.708223	49.104
6.30303	1.04279	0.708223	49.185
6.40404	1.04279	0.708223	49.2073
6.50505	1.04279	0.708223	49.183
6.60606	1.04279	0.708223	49.1218
6.70707	1.04279	0.708223	49.0314
6.80808	1.04279	0.708223	48.9178
6.90909	1.04279	0.708223	48.7859
7.0101	1.04279	0.708223	48.6395
7.11111	1.04279	0.708223	48.4815
7.21212	1.04279	0.708223	48.3143
7.31313	1.04279	0.708223	48.14
7.41414	1.04279	0.708223	47.9599
7.51515	1.04279	0.708223	47.7752
7.61616	1.04279	0.708223	47.5869
7.71717	1.04279	0.708223	47.3958
7.81818	1.04279	0.708223	47.2024
7.91919	1.04279	0.708223	47.0073
8.0202	1.04279	0.708223	46.8107
8.12121	1.04279	0.708223	46.613
8.22222	1.04279	0.708223	46.4144
8.32323	1.04279	0.708223	46.215
8.42424	1.04279	0.708223	46.0152
8.52525	1.04279	0.708223	45.8148
8.62626	1.04279	0.708223	45.6142
8.72727	1.04279	0.708223	45.4132
8.82828	1.04279	0.708223	45.212
8.92929	1.04279	0.708223	45.0107
9.0303	1.04279	0.708223	44.8092
9.13131	1.04279	0.708223	44.6076
9.23232	1.04279	0.708223	44.4059
9.33333	1.04279	0.708223	44.2041
9.43434	1.04279	0.708223	44.0023
9.53535	1.04279	0.708223	43.8005
9.63636	1.04279	0.708223	43.5986
9.73737	1.04279	0.708223	43.3967
9.83838	1.04279	0.708223	43.1947
9.93939	1.04279	0.708223	42.9928
10.0404	1.04279	0.708223	42.7908
10.1414	1.04279	0.708223	42.5888
10.2424	1.04279	0.708223	42.3868
10.3434	1.04279	0.708223	42.1848
10.4444	1.04279	0.708223	41.9828
10.5455	1.04279	0.708223	41.7808
10.6465	1.04279	0.708223	41.5788
10.7475	1.04279	0.708223	41.3768
10.8485	1.04279	0.708223	41.1748
10.9495	1.04279	0.708223	40.9727
11.0505	1.04279	0.708223	40.7707
11.1515	1.04279	0.708223	40.5687
11.2525	1.04279	0.708223	40.3666
11.3535	1.04279	0.708223	40.1646
11.4545	1.04279	0.708223	39.9625
11.5556	1.04279	0.708223	39.7604
11.6566	1.04279	0.708223	39.5583
11.7576	1.04279	0.708223	39.3562
11.8586	1.04279	0.708223	39.1541
11.9596	1.04279	0.708223	38.9519
12.0606	1.04279	0.708223	38.7497
12.1616	1.04279	0.708223	38.5474
12.2626	1.04279	0.708223	38.3451
12.3636	1.04279	0.708223	38.1427
12.4646	1.04279	0.708223	37.9402
12.5657	1.04279	0.708223	37.7376
12.6667	1.04279	0.708223	37.5348
12.7677	1.04279	0.708223	37.3318
12.8687	1.04279	0.708223	37.1286
12.9697	1.04279	0.708223	36.925
13.0707	1.04279	0.708223	36.7211
13.1717	1.04279	0.708223	36.5166
13.2727	1.04279	0.708223	36.3115
13.3737	1.04279	0.708223	36.1056
13.4747	1.04279	0.708223	35.8987
13.5758	1.04279	0.708223	35.6905
13.6768	1.04279	0.708223	35.4807
13.7778	1.04279	0.708223	35.2688
13.8788	1.04279	0.708223	35.0544
13.9798	1.04279	0.708223	34.8367
14.0808	1.04279	0.708223	34.6149
14.1818	1.04279	0.708223	34.388
14.2828	1.04279	0.708223	34.1545
14.3838	1.04279	0.708223	33.9127
14.4848	1.04279	0.708223	33.6606
14.5859	1.04279	0.708223	33.3953
14.6869	1.04279	0.708223	33.1135
14.7879	1.04279	0.708223	32.8108
14.8889	1.04279	0.708223	32.4817
14.9899	1.04279	0.708223	32.1193
15.0909	1.04279	0.708223	31.715
15.1919	1.04279	0.708223	31.2576
15.2929	1.04279	0.708223	30.7334
15.3939	1.04279	0.708223	30.1249
15.4949	1.04279	0.708223	29.4099
15.596	1.04279	0.708223	28.5605
15.697	1.04279	0.708223	27.5417
15.798	1.04279	0.708223	26.3089
15.899	1.04279	0.708223	24.8063
16	1.04279	0.708223	22.9631
6	1.05706	0.817905	48.6272
6.10101	1.05706	0.817905	48.8758
6.20202	1.05706	0.817905	49.0309
6.30303	1.05706	0.817905	49.1119
6.40404	1.05706	0.817905	49.1342
6.50505	1.05706	0.817905	49.1099
6.60606	1.05706	0.817905	49.0487
6.70707	1.05706	0.817905	48.9583
6.80808	1.05706	0.817905	48.8447
6.90909	1.05706	0.817905	48.7128
7.0101	1.05706	0.817905	48.5664
7.11111	1.05706	0.817905	48.4084
7.21212	1.05706	0.817905	48.2412
7.31313	1.05706	0.817905	48.0669
7.41414	1.05706	0.817905	47.8867
7.51515	1.05706	0.817905	47.7021
7.61616	1.05706	0.817905	47.5138
7.71717	1.05706	0.817905	47.3227
7.81818	1.05706	0.817905	47.1293
7.91919	1.05706	0.817905	46.9342
8.0202	1.05706	0.817905	46.7376
8.12121	1.05706	0.817905	46.5399
8.22222	1.05706	0.817905	46.3412
8.32323	1.05706	0.817905	46.1419
8.42424	1.05706	0.817905	45.942
8.52525	1.05706	0.817905	45.7417
8.62626	1.05706	0.817905	45.541
8.72727	1.05706	0.817905	45.3401
8.82828	1.05706	0.817905	45.1389
8.92929	1.05706	0.817905	44.9376
9.0303	1.05706	0.817905	44.7361
9.13131	1.05706	0.817905	44.5345
9.23232	1.05706	0.817905	44.3328
9.33333	1.05706	0.817905	44.131
9.43434	1.05706	0.817905	43.9292
9.53535	1.05706	0.817905	43.7274
9.63636	1.05706	0.817905	43.5255
9.73737	1.05706	0.817905	43.3236
9.83838	1.05706	0.817905	43.1216
9.93939	1.05706	0.817905	42.9197
10.0404	1.05706	0.817905	42.7177
10.1414	1.05706	0.817905	42.5157
10.2424	1.05706	0.817905	42.3137
10.3434	1.05706	0.817905	42.1117
10.4444	1.05706	0.817905	41.9097
10.5455	1.05706	0.817905	41.7077
10.6465	1.05706	0.817905	41.5057
10.7475	1.05706	0.817905	41.3037
10.8485	1.05706	0.817905	41.1017
10.9495	1.05706	0.817905	40.8996
11.0505	1.05706	0.817905	40.6976
11.1515	1.05706	0.817905	40.4955
11.2525	1.05706	0.817905	40.2935
11.3535	1.05706	0.817905	40.0914
11.4545	1.05706	0.817905	39.8894
11.5556	1.05706	0.817905	39.6873
11.6566	1.05706	0.817905	39.4852
11.7576	1.05706	0.817905	39.2831
11.8586	1.05706	0.817905	39.081
11.9596	1.05706	0.817905	38.8788
12.0606	1.05706	0.817905	38.6766
12.1616	1.05706	0.817905	38.4743
12.2626	1.05706	0.817905	38.272
12.3636	1.05706	0.817905	38.0696
12.4646	1.05706	0.817905	37.8671
12.5657	1.05706	0.817905	37.6645
12.6667	1.05706	0.817905	37.4617
12.7677	1.05706	0.817905	37.2587
12.8687	1.05706	0.817905	37.0555
12.9697	1.05706	0.817905	36.8519
13.0707	1.05706	0.817905	36.648
13.1717	1.05706	0.817905	36.4435
13.2727	1.05706	0.817905	36.2384
13.3737	1.05706	0.817905	36.0325
13.4747	1.05706	0.817905	35.8256
13.5758	1.05706	0.817905	35.6174
13.6768	1.05706	0.817905	35.4076
13.7778	1.05706	0.817905	35.1957
13.8788	1.05706	0.817905	34.9813
13.9798	1.05706	0.817905	34.7636
14.0808	1.05706	0.817905	34.5418
14.1818	1.05706	0.817905	34.3149
14.2828	1.05706	0.817905	34.0814
14.3838	1.05706	0.817905	33.8396
14.4848	1.05706	0.817905	33.5875
14.5859	1.05706	0.817905	33.3222
14.6869	1.05706	0.817905	33.0404
14.7879	1.05706	0.817905	32.7377
14.8889	1.05706	0.817905	32.4086
14.9899	1.05706	0.817905	32.0462
15.0909	1.05706	0.817905	31.6419
15.1919	1.05706	0.817905	31.1845
15.2929	1.05706	0.817905	30.6603
15.3939	1.05706	0.817905	30.0518
15.4949	1.05706	0.817905	29.3368
15.596	1.05706	0.817905	28.4874
15.697	1.05706	0.817905	27.4686
15.798	1.05706	0.817905	26.2358
15.899	1.05706	0.817905	24.7332
16	1.05706	0.817905	22.89
6	1.07132	0.903305	48.5539
6.10101	1.07132	0.903305	48.8025
6.20202	1.07132	0.903305	48.9576
6.30303	1.07132	0.903305	49.0386
6.40404	1.07132	0.903305	49.0608
6.50505	1.07132	0.903305	49.0365
6.60606	1.07132	0.903305	48.9754
6.70707	1.07132	0.903305	48.885
6.80808	1.07132	0.903305	48.7714
6.90909	1.07132	0.903305	48.6395
7.0101	1.07132	0.903305	48.493
7.11111	1.07132	0.903305	48.335
7.21212	1.07132	0.903305	48.1679
7.31313	1.07132	0.903305	47.9935
7.41414	1.07132	0.903305	47.8134
7.51515	1.07132	0.903305	47.6288
7.61616	1.07132	0.903305	47.4405
7.71717	1.07132	0.903305	47.2494
7.81818	1.07132	0.903305	47.056
7.91919	1.07132	0.903305	46.8608
8.0202	1.07132	0.903305	46.6642
8.12121	1.07132	0.903305	46.4665
8.22222	1.07132	0.903305	46.2679
8.32323	1.07132	0.903305	46.0686
8.42424	1.07132	0.903305	45.8687
8.52525	1.07132	0.903305	45.6684
8.62626	1.07132	0.903305	45.4677
8.72727	1.07132	0.903305	45.2668
8.82828	1.07132	0.903305	45.0656
8.92929	1.07132	0.903305	44.8642
9.0303	1.07132	0.903305	44.6627
9.13131	1.07132	0.903305	44.4611
9.23232	1.07132	0.903305	44.2595
9.33333	1.07132	0.903305	44.0577
9.43434	1.07132	0.903305	43.8559
9.53535	1.07132	0.903305	43.654
9.63636	1.07132	0.903305	43.4521
9.73737	1.07132	0.903305	43.2502
9.83838	1.07132	0.903305	43.0483
9.93939	1.07132	0.903305	42.8463
10.0404	1.07132	0.903305	42.6444
10.1414	1.07132	0.903305	42.4424
10.2424	1.07132	0.903305	42.2404
10.3434	1.07132	0.903305	42.0384
10.4444	1.07132	0.903305	41.8364
10.5455	1.07132	0.903305	41.6344
10.6465	1.07132	0.903305	41.4324
10.7475	1.07132	0.903305	41.2303
10.8485	1.07132	0.903305	41.0283
10.9495	1.07132	0.903305	40.8263
11.0505	1.07132	0.903305	40.6243
11.1515	1.07132	0.903305	40.4222
11.2525	1.07132	0.903305	40.2202
11.3535	1.07132	0.903305	40.0181
11.4545	1.07132	0.903305	39.8161
11.5556	1.07132	0.903305	39.614
11.6566	1.07132	0.903305	39.4119
11.7576	1.07132	0.903305	39.2098
11.8586	1.07132	0.903305	39.0076
11.9596	1.07132	0.903305	38.8055
12.0606	1.07132	0.903305	38.6033
12.1616	1.07132	0.903305	38.401
12.2626	1.07132	0.903305	38.1987
12.3636	1.07132	0.903305	37.9963
12.4646	1.07132	0.903305	37.7938
12.5657	1.07132	0.903305	37.5912
12.6667	1.07132	0.903305	37.3884
12.7677	1.07132	0.903305	37.1854
12.8687	1.07132	0.903305	36.9822
12.9697	1.07132	0.903305	36.7786
13.0707	1.07132	0.903305	36.5747
13.1717	1.07132	0.903305	36.3702
13.2727	1.07132	0.903305	36.1651
13.3737	1.07132	0.903305	35.9592
13.4747	1.07132	0.903305	35.7523
13.5758	1.07132	0.903305	35.5441
13.6768	1.07132	0.903305	35.3343
13.7778	1.07132	0.903305	35.1224
13.8788	1.07132	0.903305	34.908
13.9798	1.07132	0.903305	34.6903
14.0808	1.07132	0.903305	34.4685
14.1818	1.07132	0.903305	34.2415
14.2828	1.07132	0.903305	34.008
14.3838	1.07132	0.903305	33.7663
14.4848	1.07132	0.903305	33.5142
14.5859	1.07132	0.903305	33.2489
14.6869	1.07132	0.903305	32.9671
14.7879	1.07132	0.903305	32.6643
14.8889	1.07132	0.903305	32.3353
14.9899	1.07132	0.903305	31.9729
15.0909	1.07132	0.903305	31.5685
15.1919	1.07132	0.903305	31.1112
15.2929	1.07132	0.903305	30.587
15.3939	1.07132	0.903305	29.9784
15.4949	1.07132	0.903305	29.2634
15.596	1.07132	0.903305	28.4141
15.697	1.07132	0.903305	27.3952
15.798	1.07132	0.903305	26.1625
15.899	1.07132	0.903305	24.6599
16	1.07132	0.903305	22.8166
6	1.08559	0.983583	48.4936
6.10101	1.08559	0.983583	48.7422
6.20202	1.08559	0.983583	48.8973
6.30303	1.08559	0.983583	48.9783
6.40404	1.08559	0.983583	49.0005
6.50505	1.08559	0.983583	48.9762
6.60606	1.08559	0.983583	48.9151
6.70707	1.08559	0.983583	48.8247
6.80808	1.08559	0.983583	48.7111
6.90909	1.08559	0.983583	48.5792
7.0101	1.08559	0.983583	48.4327
7.11111	1.08559	0.983583	48.2747
7.21212	1.08559	0.983583	48.1076
7.31313	1.08559	0.983583	47.9332
7.41414	1.08559	0.983583	47.7531
7.51515	1.08559	0.983583	47.5685
7.61616	1.08559	0.983583	47.3802
7.71717	1.08559	0.983583	47.1891
7.81818	1.08559	0.983583	46.9957
7.91919	1.08559	0.983583	46.8005
8.0202	1.08559	0.983583	46.6039
8.12121	1.08559	0.983583	46.4062
8.22222	1.08559	0.983583	46.2076
8.32323	1.08559	0.983583	46.0083
8.42424	1.08559	0.983583	45.8084
8.52525	1.08559	0.983583	45.6081
8.62626	1.08559	0.983583	45.4074
8.72727	1.08559	0.983583	45.2065
8.82828	1.08559	0.983583	45.0053
8.92929	1.08559	0.983583	44.8039
9.0303	1.08559	0.983583	44.6024
9.13131	1.08559	0.983583	44.4008
9.23232	1.08559	0.983583	44.1991
9.33333	1.08559	0.983583	43.9974
9.43434	1.08559	0.983583	43.7956
9.53535	1.08559	0.983583	43.5937
9.63636	1.08559	0.983583	43.3918
9.73737	1.08559	0.983583	43.1899
9.83838	1.08559	0.983583	42.988
9.93939	1.08559	0.983583	42.786
10.0404	1.08559	0.983583	42.5841
10.1414	1.08559	0.983583	42.3821
10.2424	1.08559	0.983583	42.1801
10.3434	1.08559	0.983583	41.9781
10.4444	1.08559	0.983583	41.7761
10.5455	1.08559	0.983583	41.5741
10.6465	1.08559	0.983583	41.3721
10.7475	1.08559	0.983583	41.17
10.8485	1.08559	0.983583	40.968
10.9495	1.08559	0.983583	40.766
11.0505	1.08559	0.983583	40.5639
11.1515	1.08559	0.983583	40.3619
11.2525	1.08559	0.983583	40.1599
11.3535	1.08559	0.983583	39.9578
11.4545	1.08559	0.983583	39.7557
11.5556	1.08559	0.983583	39.5537
11.6566	1.08559	0.983583	39.3516
11.7576	1.08559	0.983583	39.1495
11.8586	1.08559	0.983583	38.9473
11.9596	1.08559	0.983583	38.7452
12.0606	1.08559	0.983583	38.5429
12.1616	1.08559	0.983583	38.3407
12.2626	1.08559	0.983583	38.1384
12.3636	1.08559	0.983583	37.936
12.4646	1.08559	0.983583	37.7335
12.5657	1.08559	0.983583	37.5308
12.6667	1.08559	0.983583	37.3281
12.7677	1.08559	0.983583	37.1251
12.8687	1.08559	0.983583	36.9218
12.9697	1.08559	0.983583	36.7183
13.0707	1.08559	0.983583	36.5143
13.1717	1.08559	0.983583	36.3099
13.2727	1.08559	0.983583	36.1048
13.3737	1.08559	0.983583	35.8989
13.4747	1.08559	0.983583	35.692
13.5758	1.08559	0.983583	35.4838
13.6768	1.08559	0.983583	35.274
13.7778	1.08559	0.983583	35.0621
13.8788	1.08559	0.983583	34.8477
13.9798	1.08559	0.983583	34.63
14.0808	1.08559	0.983583	34.4082
14.1818	1.08559	0.983583	34.1812
14.2828	1.08559	0.983583	33.9477
14.3838	1.08559	0.983583	33.706
14.4848	1.08559	0.983583	33.4539
14.5859	1.08559	0.983583	33.1886
14.6869	1.08559	0.983583	32.9068
14.7879	1.08559	0.983583	32.604
14.8889	1.08559	0.983583	32.2749
14.9899	1.08559	0.983583	31.9126
15.0909	1.08559	0.983583	31.5082
15.1919	1.08559	0.983583	31.0509
15.2929	1.08559	0.983583	30.5267
15.3939	1.08559	0.983583	29.9181
15.4949	1.08559	0.983583	29.2031
15.596	1.08559	0.983583	28.3538
15.697	1.08559	0.983583	27.3349
15.798	1.08559	0.983583	26.1022
15.899	1.08559	0.983583	24.5996
16	1.08559	0.983583	22.7563
6	1.09985	1.05931	48.4408
6.10101	1.09985	1.05931	48.6894
6.20202	1.09985	1.05931	48.8445
6.30303	1.09985	1.05931	48.9255
6.40404	1.09985	1.05931	48.9477
6.50505	1.09985	1.05931	48.9234
6.60606	1.09985	1.05931	48.8623
6.70707	1.09985	1.05931	48.7719
6.80808	1.09985	1.05931	48.6583
6.90909	1.09985	1.05931	48.5264
7.0101	1.09985	1.05931	48.3799
7.11111	1.09985	1.05931	48.2219
7.21212	1.09985	1.05931	48.0548
7.31313	1.09985	1.05931	47.8804
7.41414	1.09985	1.05931	47.7003
7.51515	1.09985	1.05931	47.5157
7.61616	1.09985	1.05931	47.3274
7.71717	1.09985	1.05931	47.1363
7.81818	1.09985	1.05931	46.9429
7.91919	1.09985	1.05931	46.7477
8.0202	1.09985	1.05931	46.5512
8.12121	1.09985	1.05931	46.3534
8.22222	1.09985	1.05931	46.1548
8.32323	1.09985	1.05931	45.9555
8.42424	1.09985	1.05931	45.7556
8.52525	1.09985	1.05931	45.5553
8.62626	1.09985	1.05931	45.3546
8.72727	1.09985	1.05931	45.1537
8.82828	1.09985	1.05931	44.9525
8.92929	1.09985	1.05931	44.7511
9.0303	1.09985	1.05931	44.5497
9.13131	1.09985	1.05931	44.3481
9.23232	1.09985	1.05931	44.1464
9.33333	1.09985	1.05931	43.9446
9.43434	1.09985	1.05931	43.7428
9.53535	1.09985	1.05931	43.5409
9.63636	1.09985	1.05931	43.3391
9.73737	1.09985	1.05931	43.1371
9.83838	1.09985	1.05931	42.9352
9.93939	1.09985	1.05931	42.7332
10.0404	1.09985	1.05931	42.5313
10.1414	1.09985	1.05931	42.3293
10.2424	1.09985	1.05931	42.1273
10.3434	1.09985	1.05931	41.9253
10.4444	1.09985	1.05931	41.7233
10.5455	1.09985	1.05931	41.5213
10.6465	1.09985	1.05931	41.3193
10.7475	1.09985	1.05931	41.1173
10.8485	1.09985	1.05931	40.9152
10.9495	1.09985	1.05931	40.7132
11.0505	1.09985	1.05931	40.5112
11.1515	1.09985	1.05931	40.3091
11.2525	1.09985	1.05931	40.1071
11.3535	1.09985	1.05931	39.905
11.4545	1.09985	1.05931	39.703
11.5556	1.09985	1.05931	39.5009
11.6566	1.09985	1.05931	39.2988
11.7576	1.09985	1.05931	39.0967
11.8586	1.09985	1.05931	38.8945
11.9596	1.09985	1.05931	38.6924
12.0606	1.09985	1.05931	38.4902
12.1616	1.09985	1.05931	38.2879
12.2626	1.09985	1.05931	38.0856
12.3636	1.09985	1.05931	37.8832
12.4646	1.09985	1.05931	37.6807
12.5657	1.09985	1.05931	37.4781
12.6667	1.09985	1.05931	37.2753
12.7677	1.09985	1.05931	37.0723
12.8687	1.09985	1.05931	36.8691
12.9697	1.09985	1.05931	36.6655
13.0707	1.09985	1.05931	36.4616
13.1717	1.09985	1.05931	36.2571
13.2727	1.09985	1.05931	36.052
13.3737	1.09985	1.05931	35.8461
13.4747	1.09985	1.05931	35.6392
13.5758	1.09985	1.05931	35.431
13.6768	1.09985	1.05931	35.2212
13.7778	1.09985	1.05931	35.0093
13.8788	1.09985	1.05931	34.7949
13.9798	1.09985	1.05931	34.5772
14.0808	1.09985	1.05931	34.3554
14.1818	1.09985	1.05931	34.1284
14.2828	1.09985	1.05931	33.8949
14.3838	1.09985	1.05931	33.6532
14.4848	1.09985	1.05931	33.4011
14.5859	1.09985	1.05931	33.1358
14.6869	1.09985	1.05931	32.854
14.7879	1.09985	1.05931	32.5513
14.8889	1.09985	1.05931	32.2222
14.9899	1.09985	1.05931	31.8598
15.0909	1.09985	1.05931	31.4554
15.1919	1.09985	1.05931	30.9981
15.2929	1.09985	1.05931	30.4739
15.3939	1.09985	1.05931	29.8654
15.4949	1.09985	1.05931	29.1503
15.596	1.09985	1.05931	28.301
15.697	1.09985	1.05931	27.2822
15.798	1.09985	1.05931	26.0494
15.899	1.09985	1.05931	24.5468
16	1.09985	1.05931	22.7036
6	1.11412	1.12356	48.3852
6.10101	1.11412	1.12356	48.6338
6.20202	1.11412	1.12356	48.7889
6.30303	1.11412	1.12356	48.8698
6.40404	1.11412	1.12356	48.8921
6.50505	1.11412	1.12356	48.8678
6.60606	1.11412	1.12356	48.8066
6.70707	1.11412	1.12356	48.7162
6.80808	1.11412	1.12356	48.6027
6.90909	1.11412	1.12356	48.4708
7.0101	1.11412	1.12356	48.3243
7.11111	1.11412	1.12356	48.1663
7.21212	1.11412	1.12356	47.9992
7.31313	1.11412	1.12356	47.8248
7.41414	1.11412	1.12356	47.6447
7.51515	1.11412	1.12356	47.46
7.61616	1.11412	1.12356	47.2718
7.71717	1.11412	1.12356	47.0807
7.81818	1.11412	1.12356	46.8873
7.91919	1.11412	1.12356	46.6921
8.0202	1.11412	1.12356	46.4955
8.12121	1.11412	1.12356	46.2978
8.22222	1.11412	1.12356	46.0992
8.32323	1.11412	1.12356	45.8999
8.42424	1.11412	1.12356	45.7
8.52525	1.11412	1.12356	45.4997
8.62626	1.11412	1.12356	45.299
8.72727	1.11412	1.12356	45.098
8.82828	1.11412	1.12356	44.8969
8.92929	1.11412	1.12356	44.6955
9.0303	1.11412	1.12356	44.494
9.13131	1.11412	1.12356	44.2924
9.23232	1.11412	1.12356	44.0907
9.33333	1.11412	1.12356	43.889
9.43434	1.11412	1.12356	43.6872
9.53535	1.11412	1.12356	43.4853
9.63636	1.11412	1.12356	43.2834
9.73737	1.11412	1.12356	43.0815
9.83838	1.11412	1.12356	42.8796
9.93939	1.11412	1.12356	42.6776
10.0404	1.11412	1.12356	42.4756
10.1414	1.11412	1.12356	42.2736
10.2424	1.11412	1.12356	42.0717
10.3434	1.11412	1.12356	41.8697
10.4444	1.11412	1.12356	41.6677
10.5455	1.11412	1.12356	41.4656
10.6465	1.11412	1.12356	41.2636
10.7475	1.11412	1.12356	41.0616
10.8485	1.11412	1.12356	40.8596
10.9495	1.11412	1.12356	40.6576
11.0505	1.11412	1.12356	40.4555
11.1515	1.11412	1.12356	40.2535
11.2525	1.11412	1.12356	40.0514
11.3535	1.11412	1.12356	39.8494
11.4545	1.11412	1.12356	39.6473
11.5556	1.11412	1.12356	39.4452
11.6566	1.11412	1.12356	39.2431
11.7576	1.11412	1.12356	39.041
11.8586	1.11412	1.12356	38.8389
11.9596	1.11412	1.12356	38.6367
12.0606	1.11412	1.12356	38.4345
12.1616	1.11412	1.12356	38.2323
12.2626	1.11412	1.12356	38.0299
12.3636	1.11412	1.12356	37.8275
12.4646	1.11412	1.12356	37.625
12.5657	1.11412	1.12356	37.4224
12.6667	1.11412	1.12356	37.2196
12.7677	1.11412	1.12356	37.0167
12.8687	1.11412	1.12356	36.8134
12.9697	1.11412	1.12356	36.6099
13.0707	1.11412	1.12356	36.4059
13.1717	1.11412	1.12356	36.2015
13.2727	1.11412	1.12356	35.9964
13.3737	1.11412	1.12356	35.7905
13.4747	1.11412	1.12356	35.5835
13.5758	1.11412	1.12356	35.3754
13.6768	1.11412	1.12356	35.1655
13.7778	1.11412	1.12356	34.9537
13.8788	1.11412	1.12356	34.7392
13.9798	1.11412	1.12356	34.5216
14.0808	1.11412	1.12356	34.2998
14.1818	1.11412	1.12356	34.0728
14.2828	1.11412	1.12356	33.8393
14.3838	1.11412	1.12356	33.5976
14.4848	1.11412	1.12356	33.3454
14.5859	1.11412	1.12356	33.0802
14.6869	1.11412	1.12356	32.7983
14.7879	1.11412	1.12356	32.4956
14.8889	1.11412	1.12356	32.1665
14.9899	1.11412	1.12356	31.8042
15.0909	1.11412	1.12356	31.3998
15.1919	1.11412	1.12356	30.9425
15.2929	1.11412	1.12356	30.4183
15.3939	1.11412	1.12356	29.8097
15.4949	1.11412	1.12356	29.0947
15.596	1.11412	1.12356	28.2454
15.697	1.11412	1.12356	27.2265
15.798	1.11412	1.12356	25.9938
15.899	1.11412	1.12356	24.4911
16	1.11412	1.12356	22.6479
6	1.12838	1.18402	48.3327
6.10101	1.12838	1.18402	48.5813
6.20202	1.12838	1.18402	48.7363
6.30303	1.12838	1.18402	48.8173
6.40404	1.12838	1.18402	48.8396
6.50505	1.12838	1.18402	48.8153
6.60606	1.12838	1.18402	48.7541
6.70707	1.12838	1.18402	48.6637
6.80808	1.12838	1.18402	48.5502
6.90909	1.12838	1.18402	48.4182
7.0101	1.12838	1.18402	48.2718
7.11111	1.12838	1.18402	48.1138
7.21212	1.12838	1.18402	47.9466
7.31313	1.12838	1.18402	47.7723
7.41414	1.12838	1.18402	47.5922
7.51515	1.12838	1.18402	47.4075
7.61616	1.12838	1.18402	47.2193
7.71717	1.12838	1.18402	47.0281
7.81818	1.12838	1.18402	46.8348
7.91919	1.12838	1.18402	46.6396
8.0202	1.12838	1.18402	46.443
8.12121	1.12838	1.18402	46.2453
8.22222	1.12838	1.18402	46.0467
8.32323	1.12838	1.18402	45.8473
8.42424	1.12838	1.18402	45.6475
8.52525	1.12838	1.18402	45.4471
8.62626	1.12838	1.18402	45.2465
8.72727	1.12838	1.18402	45.0455
8.82828	1.12838	1.18402	44.8443
8.92929	1.12838	1.18402	44.643
9.0303	1.12838	1.18402	44.4415
9.13131	1.12838	1.18402	44.2399
9.23232	1.12838	1.18402	44.0382
9.33333	1.12838	1.18402	43.8365
9.43434	1.12838	1.18402	43.6346
9.53535	1.12838	1.18402	43.4328
9.63636	1.12838	1.18402	43.2309
9.73737	1.12838	1.18402	43.029
9.83838	1.12838	1.18402	42.827
9.93939	1.12838	1.18402	42.6251
10.0404	1.12838	1.18402	42.4231
10.1414	1.12838	1.18402	42.2211
10.2424	1.12838	1.18402	42.0191
10.3434	1.12838	1.18402	41.8171
10.4444	1.12838	1.18402	41.6151
10.5455	1.12838	1.18402	41.4131
10.6465	1.12838	1.18402	41.2111
10.7475	1.12838	1.18402	41.0091
10.8485	1.12838	1.18402	40.8071
10.9495	1.12838	1.18402	40.605
11.0505	1.12838	1.18402	40.403
11.1515	1.12838	1.18402	40.201
11.2525	1.12838	1.18402	39.9989
11.3535	1.12838	1.18402	39.7969
11.4545	1.12838	1.18402	39.5948
11.5556	1.12838	1.18402	39.3927
11.6566	1.12838	1.18402	39.1906
11.7576	1.12838	1.18402	38.9885
11.8586	1.12838	1.18402	38.7864
11.9596	1.12838	1.18402	38.5842
12.0606	1.12838	1.18402	38.382
12.1616	1.12838	1.18402	38.1797
12.2626	1.12838	1.18402	37.9774
12.3636	1.12838	1.18402	37.775
12.4646	1.12838	1.18402	37.5725
12.5657	1.12838	1.18402	37.3699
12.6667	1.12838	1.18402	37.1671
12.7677	1.12838	1.18402	36.9641
12.8687	1.12838	1.18402	36.7609
12.9697	1.12838	1.18402	36.5574
13.0707	1.12838	1.18402	36.3534
13.1717	1.12838	1.18402	36.149
13.2727	1.12838	1.18402	35.9439
13.3737	1.12838	1.18402	35.738
13.4747	1.12838	1.18402	35.531
13.5758	1.12838	1.18402	35.3228
13.6768	1.12838	1.18402	35.113
13.7778	1.12838	1.18402	34.9012
13.8788	1.12838	1.18402	34.6867
13.9798	1.12838	1.18402	34.469
14.0808	1.12838	1.18402	34.2473
14.1818	1.12838	1.18402	34.0203
14.2828	1.12838	1.18402	33.7868
14.3838	1.12838	1.18402	33.5451
14.4848	1.12838	1.18402	33.2929
14.5859	1.12838	1.18402	33.0276
14.6869	1.12838	1.18402	32.7458
14.7879	1.12838	1.18402	32.4431
14.8889	1.12838	1.18402	32.114
14.9899	1.12838	1.18402	31.7516
15.0909	1.12838	1.18402	31.3473
15.1919	1.12838	1.18402	30.89
15.2929	1.12838	1.18402	30.3658
15.3939	1.12838	1.18402	29.7572
15.4949	1.12838	1.18402	29.0422
15.596	1.12838	1.18402	28.1928
15.697	1.12838	1.18402	27.174
15.798	1.12838	1.18402	25.9413
15.899	1.12838	1.18402	24.4386
16	1.12838	1.18402	22.5954
6	1.14265	1.24248	48.2835
6.10101	1.14265	1.24248	48.5321
6.20202	1.14265	1.24248	48.6872
6.30303	1.14265	1.24248	48.7681
6.40404	1.14265	1.24248	48.7904
6.50505	1.14265	1.24248	48.7661
6.60606	1.14265	1.24248	48.7049
6.70707	1.14265	1.24248	48.6145
6.80808	1.14265	1.24248	48.501
6.90909	1.14265	1.24248	48.3691
7.0101	1.14265	1.24248	48.2226
7.11111	1.14265	1.24248	48.0646
7.21212	1.14265	1.24248	47.8975
7.31313	1.14265	1.24248	47.7231
7.41414	1.14265	1.24248	47.543
7.51515	1.14265	1.24248	47.3583
7.61616	1.14265	1.24248	47.1701
7.71717	1.14265	1.24248	46.979
7.81818	1.14265	1.24248	46.7856
7.91919	1.14265	1.24248	46.5904
8.0202	1.14265	1.24248	46.3938
8.12121	1.14265	1.24248	46.1961
8.22222	1.14265	1.24248	45.9975
8.32323	1.14265	1.24248	45.7982
8.42424	1.14265	1.24248	45.5983
8.52525	1.14265	1.24248	45.398
8.62626	1.14265	1.24248	45.1973
8.72727	1.14265	1.24248	44.9963
8.82828	1.14265	1.24248	44.7952
8.92929	1.14265	1.24248	44.5938
9.0303	1.14265	1.24248	44.3923
9.13131	1.14265	1.24248	44.1907
9.23232	1.14265	1.24248	43.989
9.33333	1.14265	1.24248	43.7873
9.43434	1.14265	1.24248	43.5855
9.53535	1.14265	1.24248	43.3836
9.63636	1.14265	1.24248	43.1817
9.73737	1.14265	1.24248	42.9798
9.83838	1.14265	1.24248	42.7779
9.93939	1.14265	1.24248	42.5759
10.0404	1.14265	1.24248	42.3739
10.1414	1.14265	1.24248	42.172
10.2424	1.14265	1.24248	41.97
10.3434	1.14265	1.24248	41.768
10.4444	1.14265	1.24248	41.566
10.5455	1.14265	1.24248	41.3639
10.6465	1.14265	1.24248	41.1619
10.7475	1.14265	1.24248	40.9599
10.8485	1.14265	1.24248	40.7579
10.9495	1.14265	1.24248	40.5559
11.0505	1.14265	1.24248	40.3538
11.1515	1.14265	1.24248	40.1518
11.2525	1.14265	1.24248	39.9497
11.3535	1.14265	1.24248	39.7477
11.4545	1.14265	1.24248	39.5456
11.5556	1.14265	1.24248	39.3435
11.6566	1.14265	1.24248	39.1415
11.7576	1.14265	1.24248	38.9393
11.8586	1.14265	1.24248	38.7372
11.9596	1.14265	1.24248	38.535
12.0606	1.14265	1.24248	38.3328
12.1616	1.14265	1.24248	38.1306
12.2626	1.14265	1.24248	37.9282
12.3636	1.14265	1.24248	37.7258
12.4646	1.14265	1.24248	37.5233
12.5657	1.14265	1.24248	37.3207
12.6667	1.14265	1.24248	37.1179
12.7677	1.14265	1.24248	36.915
12.8687	1.14265	1.24248	36.7117
12.9697	1.14265	1.24248	36.5082
13.0707	1.14265	1.24248	36.3042
13.1717	1.14265	1.24248	36.0998
13.2727	1.14265	1.24248	35.8947
13.3737	1.14265	1.24248	35.6888
13.4747	1.14265	1.24248	35.4819
13.5758	1.14265	1.24248	35.2737
13.6768	1.14265	1.24248	35.0638
13.7778	1.14265	1.24248	34.852
13.8788	1.14265	1.24248	34.6375
13.9798	1.14265	1.24248	34.4199
14.0808	1.14265	1.24248	34.1981
14.1818	1.14265	1.24248	33.9711
14.2828	1.14265	1.24248	33.7376
14.3838	1.14265	1.24248	33.4959
14.4848	1.14265	1.24248	33.2437
14.5859	1.14265	1.24248	32.9785
14.6869	1.14265	1.24248	32.6966
14.7879	1.14265	1.24248	32.3939
14.8889	1.14265	1.24248	32.0648
14.9899	1.14265	1.24248	31.7025
15.0909	1.14265	1.24248	31.2981
15.1919	1.14265	1.24248	30.8408
15.2929	1.14265	1.24248	30.3166
15.3939	1.14265	1.24248	29.708
15.4949	1.14265	1.24248	28.993
15.596	1.14265	1.24248	28.1437
15.697	1.14265	1.24248	27.1248
15.798	1.14265	1.24248	25.8921
15.899	1.14265	1.24248	24.3894
16	1.14265	1.24248	22.5462
6	1.15691	1.3003	48.2377
6.10101	1.15691	1.3003	48.4863
6.20202	1.15691	1.3003	48.6414
6.30303	1.15691	1.3003	48.7224
6.40404	1.15691	1.3003	48.7446
6.50505	1.15691	1.3003	48.7203
6.60606	1.15691	1.3003	48.6592
6.70707	1.15691	1.3003	48.5688
6.80808	1.15691	1.3003	48.4552
6.90909	1.15691	1.3003	48.3233
7.0101	1.15691	1.3003	48.1768
7.11111	1.15691	1.3003	48.0188
7.21212	1.15691	1.3003	47.8517
7.31313	1.15691	1.3003	47.6773
7.41414	1.15691	1.3003	47.4972
7.51515	1.15691	1.3003	47.3126
7.61616	1.15691	1.3003	47.1243
7.71717	1.15691	1.3003	46.9332
7.81818	1.15691	1.3003	46.7398
7.91919	1.15691	1.3003	46.5447
8.0202	1.15691	1.3003	46.3481
8.12121	1.15691	1.3003	46.1503
8.22222	1.15691	1.3003	45.9517
8.32323	1.15691	1.3003	45.7524
8.42424	1.15691	1.3003	45.5525
8.52525	1.15691	1.3003	45.3522
8.62626	1.15691	1.3003	45.1515
8.72727	1.15691	1.3003	44.9506
8.82828	1.15691	1.3003	44.7494
8.92929	1.15691	1.3003	44.548
9.0303	1.15691	1.3003	44.3466
9.13131	1.15691	1.3003	44.145
9.23232	1.15691	1.3003	43.9433
9.33333	1.15691	1.3003	43.7415
9.43434	1.15691	1.3003	43.5397
9.53535	1.15691	1.3003	43.3378
9.63636	1.15691	1.3003	43.136
9.73737	1.15691	1.3003	42.934
9.83838	1.15691	1.3003	42.7321
9.93939	1.15691	1.3003	42.5301
10.0404	1.15691	1.3003	42.3282
10.1414	1.15691	1.3003	42.1262
10.2424	1.15691	1.3003	41.9242
10.3434	1.15691	1.3003	41.7222
10.4444	1.15691	1.3003	41.5202
10.5455	1.15691	1.3003	41.3182
10.6465	1.15691	1.3003	41.1162
10.7475	1.15691	1.3003	40.9142
10.8485	1.15691	1.3003	40.7121
10.9495	1.15691	1.3003	40.5101
11.0505	1.15691	1.3003	40.3081
11.1515	1.15691	1.3003	40.106
11.2525	1.15691	1.3003	39.904
11.3535	1.15691	1.3003	39.7019
11.4545	1.15691	1.3003	39.4999
11.5556	1.15691	1.3003	39.2978
11.6566	1.15691	1.3003	39.0957
11.7576	1.15691	1.3003	38.8936
11.8586	1.15691	1.3003	38.6914
11.9596	1.15691	1.3003	38.4893
12.0606	1.15691	1.3003	38.2871
12.1616	1.15691	1.3003	38.0848
12.2626	1.15691	1.3003	37.8825
12.3636	1.15691	1.3003	37.6801
12.4646	1.15691	1.3003	37.4776
12.5657	1.15691	1.3003	37.275
12.6667	1.15691	1.3003	37.0722
12.7677	1.15691	1.3003	36.8692
12.8687	1.15691	1.3003	36.666
12.9697	1.15691	1.3003	36.4624
13.0707	1.15691	1.3003	36.2585
13.1717	1.15691	1.3003	36.054
13.2727	1.15691	1.3003	35.8489
13.3737	1.15691	1.3003	35.643
13.4747	1.15691	1.3003	35.4361
13.5758	1.15691	1.3003	35.2279
13.6768	1.15691	1.3003	35.0181
13.7778	1.15691	1.3003	34.8062
13.8788	1.15691	1.3003	34.5918
13.9798	1.15691	1.3003	34.3741
14.0808	1.15691	1.3003	34.1523
14.1818	1.15691	1.3003	33.9253
14.2828	1.15691	1.3003	33.6919
14.3838	1.15691	1.3003	33.4501
14.4848	1.15691	1.3003	33.198
14.5859	1.15691	1.3003	32.9327
14.6869	1.15691	1.3003	32.6509
14.7879	1.15691	1.3003	32.3482
14.8889	1.15691	1.3003	32.0191
14.9899	1.15691	1.3003	31.6567
15.0909	1.15691	1.3003	31.2523
15.1919	1.15691	1.3003	30.795
15.2929	1.15691	1.3003	30.2708
15.3939	1.15691	1.3003	29.6623
15.4949	1.15691	1.3003	28.9472
15.596	1.15691	1.3003	28.0979
15.697	1.15691	1.3003	27.0791
15.798	1.15691	1.3003	25.8463
15.899	1.15691	1.3003	24.3437
16	1.15691	1.3003	22.5005
6	1.17118	1.35317	48.1906
6.10101	1.17118	1.35317	48.4392
6.20202	1.17118	1.35317	48.5943
6.30303	1.17118	1.35317	48.6753
6.40404	1.17118	1.35317	48.6975
6.50505	1.17118	1.35317	48.6732
6.60606	1.17118	1.35317	48.6121
6.70707	1.17118	1.35317	48.5217
6.80808	1.17118	1.35317	48.4081
6.90909	1.17118	1.35317	48.2762
7.0101	1.17118	1.35317	48.1297
7.11111	1.17118	1.35317	47.9717
7.21212	1.17118	1.35317	47.8046
7.31313	1.17118	1.35317	47.6302
7.41414	1.17118	1.35317	47.4501
7.51515	1.17118	1.35317	47.2655
7.61616	1.17118	1.35317	47.0772
7.71717	1.17118	1.35317	46.8861
7.81818	1.17118	1.35317	46.6927
7.91919	1.17118	1.35317	46.4975
8.0202	1.17118	1.35317	46.3009
8.12121	1.17118	1.35317	46.1032
8.22222	1.17118	1.35317	45.9046
8.32323	1.17118	1.35317	45.7053
8.42424	1.17118	1.35317	45.5054
8.52525	1.17118	1.35317	45.3051
8.62626	1.17118	1.35317	45.1044
8.72727	1.17118	1.35317	44.9035
8.82828	1.17118	1.35317	44.7023
8.92929	1.17118	1.35317	44.5009
9.0303	1.17118	1.35317	44.2994
9.13131	1.17118	1.35317	44.0978
9.23232	1.17118	1.35317	43.8962
9.33333	1.17118	1.35317	43.6944
9.43434	1.17118	1.35317	43.4926
9.53535	1.17118	1.35317	43.2907
9.63636	1.17118	1.35317	43.0888
9.73737	1.17118	1.35317	42.8869
9.83838	1.17118	1.35317	42.685
9.93939	1.17118	1.35317	42.483
10.0404	1.17118	1.35317	42.2811
10.1414	1.17118	1.35317	42.0791
10.2424	1.17118	1.35317	41.8771
10.3434	1.17118	1.35317	41.6751
10.4444	1.17118	1.35317	41.4731
10.5455	1.17118	1.35317	41.2711
10.6465	1.17118	1.35317	41.0691
10.7475	1.17118	1.35317	40.867
10.8485	1.17118	1.35317	40.665
10.9495	1.17118	1.35317	40.463
11.0505	1.17118	1.35317	40.261
11.1515	1.17118	1.35317	40.0589
11.2525	1.17118	1.35317	39.8569
11.3535	1.17118	1.35317	39.6548
11.4545	1.17118	1.35317	39.4527
11.5556	1.17118	1.35317	39.2507
11.6566	1.17118	1.35317	39.0486
11.7576	1.17118	1.35317	38.8465
11.8586	1.17118	1.35317	38.6443
11.9596	1.17118	1.35317	38.4422
12.0606	1.17118	1.35317	38.24
12.1616	1.17118	1.35317	38.0377
12.2626	1.17118	1.35317	37.8354
12.3636	1.17118	1.35317	37.633
12.4646	1.17118	1.35317	37.4305
12.5657	1.17118	1.35317	37.2279
12.6667	1.17118	1.35317	37.0251
12.7677	1.17118	1.35317	36.8221
12.8687	1.17118	1.35317	36.6189
12.9697	1.17118	1.35317	36.4153
13.0707	1.17118	1.35317	36.2114
13.1717	1.17118	1.35317	36.0069
13.2727	1.17118	1.35317	35.8018
13.3737	1.17118	1.35317	35.5959
13.4747	1.17118	1.35317	35.389
13.5758	1.17118	1.35317	35.1808
13.6768	1.17118	1.35317	34.971
13.7778	1.17118	1.35317	34.7591
13.8788	1.17118	1.35317	34.5447
13.9798	1.17118	1.35317	34.327
14.0808	1.17118	1.35317	34.1052
14.1818	1.17118	1.35317	33.8782
14.2828	1.17118	1.35317	33.6447
14.3838	1.17118	1.35317	33.403
14.4848	1.17118	1.35317	33.1509
14.5859	1.17118	1.35317	32.8856
14.6869	1.17118	1.35317	32.6038
14.7879	1.17118	1.35317	32.301
14.8889	1.17118	1.35317	31.972
14.9899	1.17118	1.35317	31.6096
15.0909	1.17118	1.35317	31.2052
15.1919	1.17118	1.35317	30.7479
15.2929	1.17118	1.35317	30.2237
15.3939	1.17118	1.35317	29.6151
15.4949	1.17118	1.35317	28.9001
15.596	1.17118	1.35317	28.0508
15.697	1.17118	1.35317	27.0319
15.798	1.17118	1.35317	25.7992
15.899	1.17118	1.35317	24.2966
16	1.17118	1.35317	22.4533
6	1.18544	1.4019	48.1424
6.10101	1.18544	1.4019	48.391
6.20202	1.18544	1.4019	48.5461
6.30303	1.18544	1.4019	48.6271
6.40404	1.18544	1.4019	48.6493
6.50505	1.18544	1.4019	48.625
6.60606	1.18544	1.4019	48.5639
6.70707	1.18544	1.4019	48.4735
6.80808	1.18544	1.4019	48.3599
6.90909	1.18544	1.4019	48.228
7.0101	1.18544	1.4019	48.0815
7.11111	1.18544	1.4019	47.9235
7.21212	1.18544	1.4019	47.7564
7.31313	1.18544	1.4019	47.582
7.41414	1.18544	1.4019	47.4019
7.51515	1.18544	1.4019	47.2172
7.61616	1.18544	1.4019	47.029
7.71717	1.18544	1.4019	46.8379
7.81818	1.18544	1.4019	46.6445
7.91919	1.18544	1.4019	46.4493
8.0202	1.18544	1.4019	46.2527
8.12121	1.18544	1.4019	46.055
8.22222	1.18544	1.4019	45.8564
8.32323	1.18544	1.4019	45.6571
8.42424	1.18544	1.4019	45.4572
8.52525	1.18544	1.4019	45.2569
8.62626	1.18544	1.4019	45.0562
8.72727	1.18544	1.4019	44.8553
8.82828	1.18544	1.4019	44.6541
8.92929	1.18544	1.4019	44.4527
9.0303	1.18544	1.4019	44.2512
9.13131	1.18544	1.4019	44.0496
9.23232	1.18544	1.4019	43.8479
9.33333	1.18544	1.4019	43.6462
9.43434	1.18544	1.4019	43.4444
9.53535	1.18544	1.4019	43.2425
9.63636	1.18544	1.4019	43.0406
9.73737	1.18544	1.4019	42.8387
9.83838	1.18544	1.4019	42.6368
9.93939	1.18544	1.4019	42.4348
10.0404	1.18544	1.4019	42.2329
10.1414	1.18544	1.4019	42.0309
10.2424	1.18544	1.4019	41.8289
10.3434	1.18544	1.4019	41.6269
10.4444	1.18544	1.4019	41.4249
10.5455	1.18544	1.4019	41.2229
10.6465	1.18544	1.4019	41.0209
10.7475	1.18544	1.4019	40.8188
10.8485	1.18544	1.4019	40.6168
10.9495	1.18544	1.4019	40.4148
11.0505	1.18544	1.4019	40.2127
11.1515	1.18544	1.4019	40.0107
11.2525	1.18544	1.4019	39.8087
11.3535	1.18544	1.4019	39.6066
11.4545	1.18544	1.4019	39.4045
11.5556	1.18544	1.4019	39.2025
11.6566	1.18544	1.4019	39.0004
11.7576	1.18544	1.4019	38.7983
11.8586	1.18544	1.4019	38.5961
11.9596	1.18544	1.4019	38.394
12.0606	1.18544	1.4019	38.1917
12.1616	1.18544	1.4019	37.9895
12.2626	1.18544	1.4019	37.7872
12.3636	1.18544	1.4019	37.5848
12.4646	1.18544	1.4019	37.3823
12.5657	1.18544	1.4019	37.1796
12.6667	1.18544	1.4019	36.9769
12.7677	1.18544	1.4019	36.7739
12.8687	1.18544	1.4019	36.5706
12.9697	1.18544	1.4019	36.3671
13.0707	1.18544	1.4019	36.1631
13.1717	1.18544	1.4019	35.9587
13.2727	1.18544	1.4019	35.7536
13.3737	1.18544	1.4019	35.5477
13.4747	1.18544	1.4019	35.3408
13.5758	1.18544	1.4019	35.1326
13.6768	1.18544	1.4019	34.9228
13.7778	1.18544	1.4019	34.7109
13.8788	1.18544	1.4019	34.4965
13.9798	1.18544	1.4019	34.2788
14.0808	1.18544	1.4019	34.057
14.1818	1.18544	1.4019	33.83
14.2828	1.18544	1.4019	33.5965
14.3838	1.18544	1.4019	33.3548
14.4848	1.18544	1.4019	33.1026
14.5859	1.18544	1.4019	32.8374
14.6869	1.18544	1.4019	32.5556
14.7879	1.18544	1.4019	32.2528
14.8889	1.18544	1.4019	31.9237
14.9899	1.18544	1.4019	31.5614
15.0909	1.18544	1.4019	31.157
15.1919	1.18544	1.4019	30.6997
15.2929	1.18544	1.4019	30.1755
15.3939	1.18544	1.4019	29.5669
15.4949	1.18544	1.4019	28.8519
15.596	1.18544	1.4019	28.0026
15.697	1.18544	1.4019	26.9837
15.798	1.18544	1.4019	25.751
15.899	1.18544	1.4019	24.2484
16	1.18544	1.4019	22.4051
6	1.19971	1.45248	48.0979
6.10101	1.19971	1.45248	48.3465
6.20202	1.19971	1.45248	48.5016
6.30303	1.19971	1.45248	48.5826
6.40404	1.19971	1.45248	48.6049
6.50505	1.19971	1.45248	48.5806
6.60606	1.19971	1.45248	48.5194
6.70707	1.19971	1.45248	48.429
6.80808	1.19971	1.45248	48.3154
6.90909	1.19971	1.45248	48.1835
7.0101	1.19971	1.45248	48.0371
7.11111	1.19971	1.45248	47.8791
7.21212	1.19971	1.45248	47.7119
7.31313	1.19971	1.45248	47.5376
7.41414	1.19971	1.45248	47.3575
7.51515	1.19971	1.45248	47.1728
7.61616	1.19971	1.45248	46.9845
7.71717	1.19971	1.45248	46.7934
7.81818	1.19971	1.45248	46.6001
7.91919	1.19971	1.45248	46.4049
8.0202	1.19971	1.45248	46.2083
8.12121	1.19971	1.45248	46.0106
8.22222	1.19971	1.45248	45.812
8.32323	1.19971	1.45248	45.6126
8.42424	1.19971	1.45248	45.4128
8.52525	1.19971	1.45248	45.2124
8.62626	1.19971	1.45248	45.0118
8.72727	1.19971	1.45248	44.8108
8.82828	1.19971	1.45248	44.6096
8.92929	1.19971	1.45248	44.4083
9.0303	1.19971	1.45248	44.2068
9.13131	1.19971	1.45248	44.0052
9.23232	1.19971	1.45248	43.8035
9.33333	1.19971	1.45248	43.6017
9.43434	1.19971	1.45248	43.3999
9.53535	1.19971	1.45248	43.1981
9.63636	1.19971	1.45248	42.9962
9.73737	1.19971	1.45248	42.7943
9.83838	1.19971	1.45248	42.5923
9.93939	1.19971	1.45248	42.3904
10.0404	1.19971	1.45248	42.1884
10.1414	1.19971	1.45248	41.9864
10.2424	1.19971	1.45248	41.7844
10.3434	1.19971	1.45248	41.5824
10.4444	1.19971	1.45248	41.3804
10.5455	1.19971	1.45248	41.1784
10.6465	1.19971	1.45248	40.9764
10.7475	1.19971	1.45248	40.7744
10.8485	1.19971	1.45248	40.5724
10.9495	1.19971	1.45248	40.3703
11.0505	1.19971	1.45248	40.1683
11.1515	1.19971	1.45248	39.9663
11.2525	1.19971	1.45248	39.7642
11.3535	1.19971	1.45248	39.5622
11.4545	1.19971	1.45248	39.3601
11.5556	1.19971	1.45248	39.158
11.6566	1.19971	1.45248	38.9559
11.7576	1.19971	1.45248	38.7538
11.8586	1.19971	1.45248	38.5517
11.9596	1.19971	1.45248	38.3495
12.0606	1.19971	1.45248	38.1473
12.1616	1.19971	1.45248	37.945
12.2626	1.19971	1.45248	37.7427
12.3636	1.19971	1.45248	37.5403
12.4646	1.19971	1.45248	37.3378
12.5657	1.19971	1.45248	37.1352
12.6667	1.19971	1.45248	36.9324
12.7677	1.19971	1.45248	36.7294
12.8687	1.19971	1.45248	36.5262
12.9697	1.19971	1.45248	36.3227
13.0707	1.19971	1.45248	36.1187
13.1717	1.19971	1.45248	35.9142
13.2727	1.19971	1.45248	35.7091
13.3737	1.19971	1.45248	35.5032
13.4747	1.19971	1.45248	35.2963
13.5758	1.19971	1.45248	35.0881
13.6768	1.19971	1.45248	34.8783
13.7778	1.19971	1.45248	34.6665
13.8788	1.19971	1.45248	34.452
13.9798	1.19971	1.45248	34.2343
14.0808	1.19971	1.45248	34.0125
14.1818	1.19971	1.45248	33.7856
14.2828	1.19971	1.45248	33.5521
14.3838	1.19971	1.45248	33.3103
14.4848	1.19971	1.45248	33.0582
14.5859	1.19971	1.45248	32.7929
14.6869	1.19971	1.45248	32.5111
14.7879	1.19971	1.45248	32.2084
14.8889	1.19971	1.45248	31.8793
14.9899	1.19971	1.45248	31.5169
15.0909	1.19971	1.45248	31.1126
15.1919	1.19971	1.45248	30.6552
15.2929	1.19971	1.45248	30.131
15.3939	1.19971	1.45248	29.5225
15.4949	1.19971	1.45248	28.8075
15.596	1.19971	1.45248	27.9581
15.697	1.19971	1.45248	26.9393
15.798	1.19971	1.45248	25.7066
15.899	1.19971	1.45248	24.2039
16	1.19971	1.45248	22.3607
6	1.21397	1.50549	48.0572
6.10101	1.21397	1.50549	48.3058
6.20202	1.21397	1.50549	48.4609
6.30303	1.21397	1.50549	48.5419
6.40404	1.21397	1.50549	48.5641
6.50505	1.21397	1.50549	48.5398
6.60606	1.21397	1.50549	48.4787
6.70707	1.21397	1.50549	48.3883
6.80808	1.21397	1.50549	48.2747
6.90909	1.21397	1.50549	48.1428
7.0101	1.21397	1.50549	47.9963
7.11111	1.21397	1.50549	47.8383
7.21212	1.21397	1.50549	47.6712
7.31313	1.21397	1.50549	47.4968
7.41414	1.21397	1.50549	47.3167
7.51515	1.21397	1.50549	47.1321
7.61616	1.21397	1.50549	46.9438
7.71717	1.21397	1.50549	46.7527
7.81818	1.21397	1.50549	46.5593
7.91919	1.21397	1.50549	46.3641
8.0202	1.21397	1.50549	46.1675
8.12121	1.21397	1.50549	45.9698
8.22222	1.21397	1.50549	45.7712
8.32323	1.21397	1.50549	45.5719
8.42424	1.21397	1.50549	45.372
8.52525	1.21397	1.50549	45.1717
8.62626	1.21397	1.50549	44.971
8.72727	1.21397	1.50549	44.7701
8.82828	1.21397	1.50549	44.5689
8.92929	1.21397	1.50549	44.3675
9.0303	1.21397	1.50549	44.166
9.13131	1.21397	1.50549	43.9644
9.23232	1.21397	1.50549	43.7628
9.33333	1.21397	1.50549	43.561
9.43434	1.21397	1.50549	43.3592
9.53535	1.21397	1.50549	43.1573
9.63636	1.21397	1.50549	42.9554
9.73737	1.21397	1.50549	42.7535
9.83838	1.21397	1.50549	42.5516
9.93939	1.21397	1.50549	42.3496
10.0404	1.21397	1.50549	42.1477
10.1414	1.21397	1.50549	41.9457
10.2424	1.21397	1.50549	41.7437
10.3434	1.21397	1.50549	41.5417
10.4444	1.21397	1.50549	41.3397
10.5455	1.21397	1.50549	41.1377
10.6465	1.21397	1.50549	40.9357
10.7475	1.21397	1.50549	40.7336
10.8485	1.21397	1.50549	40.5316
10.9495	1.21397	1.50549	40.3296
11.0505	1.21397	1.50549	40.1276
11.1515	1.21397	1.50549	39.9255
11.2525	1.21397	1.50549	39.7235
11.3535	1.21397	1.50549	39.5214
11.4545	1.21397	1.50549	39.3194
11.5556	1.21397	1.50549	39.1173
11.6566	1.21397	1.50549	38.9152
11.7576	1.21397	1.50549	38.7131
11.8586	1.21397	1.50549	38.5109
11.9596	1.21397	1.50549	38.3088
12.0606	1.21397	1.50549	38.1066
12.1616	1.21397	1.50549	37.9043
12.2626	1.21397	1.50549	37.702
12.3636	1.21397	1.50549	37.4996
12.4646	1.21397	1.50549	37.2971
12.5657	1.21397	1.50549	37.0945
12.6667	1.21397	1.50549	36.8917
12.7677	1.21397	1.50549	36.6887
12.8687	1.21397	1.50549	36.4855
12.9697	1.21397	1.50549	36.2819
13.0707	1.21397	1.50549	36.078
13.1717	1.21397	1.50549	35.8735
13.2727	1.21397	1.50549	35.6684
13.3737	1.21397	1.50549	35.4625
13.4747	1.21397	1.50549	35.2556
13.5758	1.21397	1.50549	35.0474
13.6768	1.21397	1.50549	34.8376
13.7778	1.21397	1.50549	34.6257
13.8788	1.21397	1.50549	34.4113
13.9798	1.21397	1.50549	34.1936
14.0808	1.21397	1.50549	33.9718
14.1818	1.21397	1.50549	33.7448
14.2828	1.21397	1.50549	33.5113
14.3838	1.21397	1.50549	33.2696
14.4848	1.21397	1.50549	33.0175
14.5859	1.21397	1.50549	32.7522
14.6869	1.21397	1.50549	32.4704
14.7879	1.21397	1.50549	32.1676
14.8889	1.21397	1.50549	31.8386
14.9899	1.21397	1.50549	31.4762
15.0909	1.21397	1.50549	31.0718
15.1919	1.21397	1.50549	30.6145
15.2929	1.21397	1.50549	30.0903
15.3939	1.21397	1.50549	29.4817
15.4949	1.21397	1.50549	28.7667
15.596	1.21397	1.50549	27.9174
15.697	1.21397	1.50549	26.8985
15.798	1.21397	1.50549	25.6658
15.899	1.21397	1.50549	24.1632
16	1.21397	1.50549	22.3199
6	1.22824	1.5506	48.011
6.10101	1.22824	1.5506	48.2596
6.20202	1.22824	1.5506	48.4147
6.30303	1.22824	1.5506	48.4957
6.40404	1.22824	1.5506	48.5179
6.50505	1.22824	1.5506	48.4937
6.60606	1.22824	1.5506	48.4325
6.70707	1.22824	1.5506	48.3421
6.80808	1.22824	1.5506	48.2285
6.90909	1.22824	1.5506	48.0966
7.0101	1.22824	1.5506	47.9501
7.11111	1.22824	1.5506	47.7922
7.21212	1.22824	1.5506	47.625
7.31313	1.22824	1.5506	47.4507
7.41414	1.22824	1.5506	47.2705
7.51515	1.22824	1.5506	47.0859
7.61616	1.22824	1.5506	46.8976
7.71717	1.22824	1.5506	46.7065
7.81818	1.22824	1.5506	46.5131
7.91919	1.22824	1.5506	46.318
8.0202	1.22824	1.5506	46.1214
8.12121	1.22824	1.5506	45.9237
8.22222	1.22824	1.5506	45.725
8.32323	1.22824	1.5506	45.5257
8.42424	1.22824	1.5506	45.3258
8.52525	1.22824	1.5506	45.1255
8.62626	1.22824	1.5506	44.9248
8.72727	1.22824	1.5506	44.7239
8.82828	1.22824	1.5506	44.5227
8.92929	1.22824	1.5506	44.3214
9.0303	1.22824	1.5506	44.1199
9.13131	1.22824	1.5506	43.9183
9.23232	1.22824	1.5506	43.7166
9.33333	1.22824	1.5506	43.5148
9.43434	1.22824	1.5506	43.313
9.53535	1.22824	1.5506	43.1112
9.63636	1.22824	1.5506	42.9093
9.73737	1.22824	1.5506	42.7074
9.83838	1.22824	1.5506	42.5054
9.93939	1.22824	1.5506	42.3035
10.0404	1.22824	1.5506	42.1015
10.1414	1.22824	1.5506	41.8995
10.2424	1.22824	1.5506	41.6975
10.3434	1.22824	1.5506	41.4955
10.4444	1.22824	1.5506	41.2935
10.5455	1.22824	1.5506	41.0915
10.6465	1.22824	1.5506	40.8895
10.7475	1.22824	1.5506	40.6875
10.8485	1.22824	1.5506	40.4854
10.9495	1.22824	1.5506	40.2834
11.0505	1.22824	1.5506	40.0814
11.1515	1.22824	1.5506	39.8793
11.2525	1.22824	1.5506	39.6773
11.3535	1.22824	1.5506	39.4752
11.4545	1.22824	1.5506	39.2732
11.5556	1.22824	1.5506	39.0711
11.6566	1.22824	1.5506	38.869
11.7576	1.22824	1.5506	38.6669
11.8586	1.22824	1.5506	38.4648
11.9596	1.22824	1.5506	38.2626
12.0606	1.22824	1.5506	38.0604
12.1616	1.22824	1.5506	37.8581
12.2626	1.22824	1.5506	37.6558
12.3636	1.22824	1.5506	37.4534
12.4646	1.22824	1.5506	37.2509
12.5657	1.22824	1.5506	37.0483
12.6667	1.22824	1.5506	36.8455
12.7677	1.22824	1.5506	36.6425
12.8687	1.22824	1.5506	36.4393
12.9697	1.22824	1.5506	36.2357
13.0707	1.22824	1.5506	36.0318
13.1717	1.22824	1.5506	35.8273
13.2727	1.22824	1.5506	35.6222
13.3737	1.22824	1.5506	35.4163
13.4747	1.22824	1.5506	35.2094
13.5758	1.22824	1.5506	35.0012
13.6768	1.22824	1.5506	34.7914
13.7778	1.22824	1.5506	34.5795
13.8788	1.22824	1.5506	34.3651
13.9798	1.22824	1.5506	34.1474
14.0808	1.22824	1.5506	33.9256
14.1818	1.22824	1.5506	33.6987
14.2828	1.22824	1.5506	33.4652
14.3838	1.22824	1.5506	33.2234
14.4848	1.22824	1.5506	32.9713
14.5859	1.22824	1.5506	32.706
14.6869	1.22824	1.5506	32.4242
14.7879	1.22824	1.5506	32.1215
14.8889	1.22824	1.5506	31.7924
14.9899	1.22824	1.5506	31.43
15.0909	1.22824	1.5506	31.0257
15.1919	1.22824	1.5506	30.5683
15.2929	1.22824	1.5506	30.0441
15.3939	1.22824	1.5506	29.4356
15.4949	1.22824	1.5506	28.7206
15.596	1.22824	1.5506	27.8712
15.697	1.22824	1.5506	26.8524
15.798	1.22824	1.5506	25.6196
15.899	1.22824	1.5506	24.117
16	1.22824	1.5506	22.2738
6	1.2425	1.59896	47.9687
6.10101	1.2425	1.59896	48.2173
6.20202	1.2425	1.59896	48.3723
6.30303	1.2425	1.59896	48.4533
6.40404	1.2425	1.59896	48.4756
6.50505	1.2425	1.59896	48.4513
6.60606	1.2425	1.59896	48.3901
6.70707	1.2425	1.59896	48.2997
6.80808	1.2425	1.59896	48.1862
6.90909	1.2425	1.59896	48.0542
7.0101	1.2425	1.59896	47.9078
7.11111	1.2425	1.59896	47.7498
7.21212	1.2425	1.59896	47.5826
7.31313	1.2425	1.59896	47.4083
7.41414	1.2425	1.59896	47.2282
7.51515	1.2425	1.59896	47.0435
7.61616	1.2425	1.59896	46.8553
7.71717	1.2425	1.59896	46.6641
7.81818	1.2425	1.59896	46.4708
7.91919	1.2425	1.59896	46.2756
8.0202	1.2425	1.59896	46.079
8.12121	1.2425	1.59896	45.8813
8.22222	1.2425	1.59896	45.6827
8.32323	1.2425	1.59896	45.4833
8.42424	1.2425	1.59896	45.2835
8.52525	1.2425	1.59896	45.0831
8.62626	1.2425	1.59896	44.8825
8.72727	1.2425	1.59896	44.6815
8.82828	1.2425	1.59896	44.4803
8.92929	1.2425	1.59896	44.279
9.0303	1.2425	1.59896	44.0775
9.13131	1.2425	1.59896	43.8759
9.23232	1.2425	1.59896	43.6742
9.33333	1.2425	1.59896	43.4725
9.43434	1.2425	1.59896	43.2706
9.53535	1.2425	1.59896	43.0688
9.63636	1.2425	1.59896	42.8669
9.73737	1.2425	1.59896	42.665
9.83838	1.2425	1.59896	42.463
9.93939	1.2425	1.59896	42.2611
10.0404	1.2425	1.59896	42.0591
10.1414	1.2425	1.59896	41.8571
10.2424	1.2425	1.59896	41.6551
10.3434	1.2425	1.59896	41.4531
10.4444	1.2425	1.59896	41.2511
10.5455	1.2425	1.59896	41.0491
10.6465	1.2425	1.59896	40.8471
10.7475	1.2425	1.59896	40.6451
10.8485	1.2425	1.59896	40.4431
10.9495	1.2425	1.59896	40.241
11.0505	1.2425	1.59896	40.039
11.1515	1.2425	1.59896	39.837
11.2525	1.2425	1.59896	39.6349
11.3535	1.2425	1.59896	39.4329
11.4545	1.2425	1.59896	39.2308
11.5556	1.2425	1.59896	39.0287
11.6566	1.2425	1.59896	38.8266
11.7576	1.2425	1.59896	38.6245
11.8586	1.2425	1.59896	38.4224
11.9596	1.2425	1.59896	38.2202
12.0606	1.2425	1.59896	38.018
12.1616	1.2425	1.59896	37.8157
12.2626	1.2425	1.59896	37.6134
12.3636	1.2425	1.59896	37.411
12.4646	1.2425	1.59896	37.2085
12.5657	1.2425	1.59896	37.0059
12.6667	1.2425	1.59896	36.8031
12.7677	1.2425	1.59896	36.6001
12.8687	1.2425	1.59896	36.3969
12.9697	1.2425	1.59896	36.1934
13.0707	1.2425	1.59896	35.9894
13.1717	1.2425	1.59896	35.785
13.2727	1.2425	1.59896	35.5799
13.3737	1.2425	1.59896	35.374
13.4747	1.2425	1.59896	35.167
13.5758	1.2425	1.59896	34.9588
13.6768	1.2425	1.59896	34.749
13.7778	1.2425	1.59896	34.5372
13.8788	1.2425	1.59896	34.3227
13.9798	1.2425	1.59896	34.105
14.0808	1.2425	1.59896	33.8833
14.1818	1.2425	1.59896	33.6563
14.2828	1.2425	1.59896	33.4228
14.3838	1.2425	1.59896	33.1811
14.4848	1.2425	1.59896	32.9289
14.5859	1.2425	1.59896	32.6636
14.6869	1.2425	1.59896	32.3818
14.7879	1.2425	1.59896	32.0791
14.8889	1.2425	1.59896	31.75
14.9899	1.2425	1.59896	31.3876
15.0909	1.2425	1.59896	30.9833
15.1919	1.2425	1.59896	30.5259
15.2929	1.2425	1.59896	30.0018
15.3939	1.2425	1.59896	29.3932
15.4949	1.2425	1.59896	28.6782
15.596	1.2425	1.59896	27.8288
15.697	1.2425	1.59896	26.81
15.798	1.2425	1.59896	25.5773
15.899	1.2425	1.59896	24.0746
16	1.2425	1.59896	22.2314
6	1.25676	1.6455	47.9256
6.10101	1.25676	1.6455	48.1742
6.20202	1.25676	1.6455	48.3293
6.30303	1.25676	1.6455	48.4102
6.40404	1.25676	1.6455	48.4325
6.50505	1.25676	1.6455	48.4082
6.60606	1.25676	1.6455	48.347
6.70707	1.25676	1.6455	48.2566
6.80808	1.25676	1.6455	48.1431
6.90909	1.25676	1.6455	48.0112
7.0101	1.25676	1.6455	47.8647
7.11111	1.25676	1.6455	47.7067
7.21212	1.25676	1.6455	47.5396
7.31313	1.25676	1.6455	47.3652
7.41414	1.25676	1.6455	47.1851
7.51515	1.25676	1.6455	47.0004
7.61616	1.25676	1.6455	46.8122
7.71717	1.25676	1.6455	46.6211
7.81818	1.25676	1.6455	46.4277
7.91919	1.25676	1.6455	46.2325
8.0202	1.25676	1.6455	46.0359
8.12121	1.25676	1.6455	45.8382
8.22222	1.25676	1.6455	45.6396
8.32323	1.25676	1.6455	45.4403
8.42424	1.25676	1.6455	45.2404
8.52525	1.25676	1.6455	45.0401
8.62626	1.25676	1.6455	44.8394
8.72727	1.25676	1.6455	44.6384
8.82828	1.25676	1.6455	44.4373
8.92929	1.25676	1.6455	44.2359
9.0303	1.25676	1.6455	44.0344
9.13131	1.25676	1.6455	43.8328
9.23232	1.25676	1.6455	43.6311
9.33333	1.25676	1.6455	43.4294
9.43434	1.25676	1.6455	43.2276
9.53535	1.25676	1.6455	43.0257
9.63636	1.25676	1.6455	42.8238
9.73737	1.25676	1.6455	42.6219
9.83838	1.25676	1.6455	42.42
9.93939	1.25676	1.6455	42.218
10.0404	1.25676	1.6455	42.016
10.1414	1.25676	1.6455	41.814
10.2424	1.25676	1.6455	41.6121
10.3434	1.25676	1.6455	41.4101
10.4444	1.25676	1.6455	41.2081
10.5455	1.25676	1.6455	41.006
10.6465	1.25676	1.6455	40.804
10.7475	1.25676	1.6455	40.602
10.8485	1.25676	1.6455	40.4
10.9495	1.25676	1.6455	40.198
11.0505	1.25676	1.6455	39.9959
11.1515	1.25676	1.6455	39.7939
11.2525	1.25676	1.6455	39.5918
11.3535	1.25676	1.6455	39.3898
11.4545	1.25676	1.6455	39.1877
11.5556	1.25676	1.6455	38.9856
11.6566	1.25676	1.6455	38.7835
11.7576	1.25676	1.6455	38.5814
11.8586	1.25676	1.6455	38.3793
11.9596	1.25676	1.6455	38.1771
12.0606	1.25676	1.6455	37.9749
12.1616	1.25676	1.6455	37.7727
12.2626	1.25676	1.6455	37.5703
12.3636	1.25676	1.6455	37.3679
12.4646	1.25676	1.6455	37.1654
12.5657	1.25676	1.6455	36.9628
12.6667	1.25676	1.6455	36.76
12.7677	1.25676	1.6455	36.5571
12.8687	1.25676	1.6455	36.3538
12.9697	1.25676	1.6455	36.1503
13.0707	1.25676	1.6455	35.9463
13.1717	1.25676	1.6455	35.7419
13.2727	1.25676	1.6455	35.5368
13.3737	1.25676	1.6455	35.3309
13.4747	1.25676	1.6455	35.124
13.5758	1.25676	1.6455	34.9158
13.6768	1.25676	1.6455	34.7059
13.7778	1.25676	1.6455	34.4941
13.8788	1.25676	1.6455	34.2796
13.9798	1.25676	1.6455	34.062
14.0808	1.25676	1.6455	33.8402
14.1818	1.25676	1.6455	33.6132
14.2828	1.25676	1.6455	33.3797
14.3838	1.25676	1.6455	33.138
14.4848	1.25676	1.6455	32.8858
14.5859	1.25676	1.6455	32.6206
14.6869	1.25676	1.6455	32.3387
14.7879	1.25676	1.6455	32.036
14.8889	1.25676	1.6455	31.7069
14.9899	1.25676	1.6455	31.3446
15.0909	1.25676	1.6455	30.9402
15.1919	1.25676	1.6455	30.4829
15.2929	1.25676	1.6455	29.9587
15.3939	1.25676	1.6455	29.3501
15.4949	1.25676	1.6455	28.6351
15.596	1.25676	1.6455	27.7858
15.697	1.25676	1.6455	26.7669
15.798	1.25676	1.6455	25.5342
15.899	1.25676	1.6455	24.0315
16	1.25676	1.6455	22.1883
6	1.27103	1.69049	47.8818
6.10101	1.27103	1.69049	48.1304
6.20202	1.27103	1.69049	48.2855
6.30303	1.27103	1.69049	48.3665
6.40404	1.27103	1.69049	48.3888
6.50505	1.27103	1.69049	48.3645
6.60606	1.27103	1.69049	48.3033
6.70707	1.27103	1.69049	48.2129
6.80808	1.27103	1.69049	48.0993
6.90909	1.27103	1.69049	47.9674
7.0101	1.27103	1.69049	47.8209
7.11111	1.27103	1.69049	47.663
7.21212	1.27103	1.69049	47.4958
7.31313	1.27103	1.69049	47.3215
7.41414	1.27103	1.69049	47.1413
7.51515	1.27103	1.69049	46.9567
7.61616	1.27103	1.69049	46.7684
7.71717	1.27103	1.69049	46.5773
7.81818	1.27103	1.69049	46.3839
7.91919	1.27103	1.69049	46.1888
8.0202	1.27103	1.69049	45.9922
8.12121	1.27103	1.69049	45.7945
8.22222	1.27103	1.69049	45.5958
8.32323	1.27103	1.69049	45.3965
8.42424	1.27103	1.69049	45.1966
8.52525	1.27103	1.69049	44.9963
8.62626	1.27103	1.69049	44.7956
8.72727	1.27103	1.69049	44.5947
8.82828	1.27103	1.69049	44.3935
8.92929	1.27103	1.69049	44.1922
9.0303	1.27103	1.69049	43.9907
9.13131	1.27103	1.69049	43.7891
9.23232	1.27103	1.69049	43.5874
9.33333	1.27103	1.69049	43.3856
9.43434	1.27103	1.69049	43.1838
9.53535	1.27103	1.69049	42.982
9.63636	1.27103	1.69049	42.7801
9.73737	1.27103	1.69049	42.5782
9.83838	1.27103	1.69049	42.3762
9.93939	1.27103	1.69049	42.1743
10.0404	1.27103	1.69049	41.9723
10.1414	1.27103	1.69049	41.7703
10.2424	1.27103	1.69049	41.5683
10.3434	1.27103	1.69049	41.3663
10.4444	1.27103	1.69049	41.1643
10.5455	1.27103	1.69049	40.9623
10.6465	1.27103	1.69049	40.7603
10.7475	1.27103	1.69049	40.5583
10.8485	1.27103	1.69049	40.3562
10.9495	1.27103	1.69049	40.1542
11.0505	1.27103	1.69049	39.9522
11.1515	1.27103	1.69049	39.7501
11.2525	1.27103	1.69049	39.5481
11.3535	1.27103	1.69049	39.346
11.4545	1.27103	1.69049	39.144
11.5556	1.27103	1.69049	38.9419
11.6566	1.27103	1.69049	38.7398
11.7576	1.27103	1.69049	38.5377
11.8586	1.27103	1.69049	38.3356
11.9596	1.27103	1.69049	38.1334
12.0606	1.27103	1.69049	37.9312
12.1616	1.27103	1.69049	37.7289
12.2626	1.27103	1.69049	37.5266
12.3636	1.27103	1.69049	37.3242
12.4646	1.27103	1.69049	37.1217
12.5657	1.27103	1.69049	36.9191
12.6667	1.27103	1.69049	36.7163
12.7677	1.27103	1.69049	36.5133
12.8687	1.27103	1.69049	36.3101
12.9697	1.27103	1.69049	36.1065
13.0707	1.27103	1.69049	35.9026
13.1717	1.27103	1.69049	35.6981
13.2727	1.27103	1.69049	35.493
13.3737	1.27103	1.69049	35.2871
13.4747	1.27103	1.69049	35.0802
13.5758	1.27103	1.69049	34.872
13.6768	1.27103	1.69049	34.6622
13.7778	1.27103	1.69049	34.4503
13.8788	1.27103	1.69049	34.2359
13.9798	1.27103	1.69049	34.0182
14.0808	1.27103	1.69049	33.7964
14.1818	1.27103	1.69049	33.5695
14.2828	1.27103	1.69049	33.336
14.3838	1.27103	1.69049	33.0942
14.4848	1.27103	1.69049	32.8421
14.5859	1.27103	1.69049	32.5768
14.6869	1.27103	1.69049	32.295
14.7879	1.27103	1.69049	31.9923
14.8889	1.27103	1.69049	31.6632
14.9899	1.27103	1.69049	31.3008
15.0909	1.27103	1.69049	30.8965
15.1919	1.27103	1.69049	30.4391
15.2929	1.27103	1.69049	29.9149
15.3939	1.27103	1.69049	29.3064
15.4949	1.27103	1.69049	28.5914
15.596	1.27103	1.69049	27.742
15.697	1.27103	1.69049	26.7232
15.798	1.27103	1.69049	25.4904
15.899	1.27103	1.69049	23.9878
16	1.27103	1.69049	22.1446
6	1.28529	1.73419	47.8375
6.10101	1.28529	1.73419	48.0861
6.20202	1.28529	1.73419	48.2412
6.30303	1.28529	1.73419	48.3221
6.40404	1.28529	1.73419	48.3444
6.50505	1.28529	1.73419	48.3201
6.60606	1.28529	1.73419	48.2589
6.70707	1.28529	1.73419	48.1685
6.80808	1.28529	1.73419	48.055
6.90909	1.28529	1.73419	47.9231
7.0101	1.28529	1.73419	47.7766
7.11111	1.28529	1.73419	47.6186
7.21212	1.28529	1.73419	47.4515
7.31313	1.28529	1.73419	47.2771
7.41414	1.28529	1.73419	47.097
7.51515	1.28529	1.73419	46.9123
7.61616	1.28529	1.73419	46.7241
7.71717	1.28529	1.73419	46.533
7.81818	1.28529	1.73419	46.3396
7.91919	1.28529	1.73419	46.1444
8.0202	1.28529	1.73419	45.9478
8.12121	1.28529	1.73419	45.7501
8.22222	1.28529	1.73419	45.5515
8.32323	1.28529	1.73419	45.3522
8.42424	1.28529	1.73419	45.1523
8.52525	1.28529	1.73419	44.952
8.62626	1.28529	1.73419	44.7513
8.72727	1.28529	1.73419	44.5503
8.82828	1.28529	1.73419	44.3492
8.92929	1.28529	1.73419	44.1478
9.0303	1.28529	1.73419	43.9463
9.13131	1.28529	1.73419	43.7447
9.23232	1.28529	1.73419	43.543
9.33333	1.28529	1.73419	43.3413
9.43434	1.28529	1.73419	43.1395
9.53535	1.28529	1.73419	42.9376
9.63636	1.28529	1.73419	42.7357
9.73737	1.28529	1.73419	42.5338
9.83838	1.28529	1.73419	42.3319
9.93939	1.28529	1.73419	42.1299
10.0404	1.28529	1.73419	41.9279
10.1414	1.28529	1.73419	41.726
10.2424	1.28529	1.73419	41.524
10.3434	1.28529	1.73419	41.322
10.4444	1.28529	1.73419	41.12
10.5455	1.28529	1.73419	40.918
10.6465	1.28529	1.73419	40.7159
10.7475	1.28529	1.73419	40.5139
10.8485	1.28529	1.73419	40.3119
10.9495	1.28529	1.73419	40.1099
11.0505	1.28529	1.73419	39.9078
11.1515	1.28529	1.73419	39.7058
11.2525	1.28529	1.73419	39.5037
11.3535	1.28529	1.73419	39.3017
11.4545	1.28529	1.73419	39.0996
11.5556	1.28529	1.73419	38.8975
11.6566	1.28529	1.73419	38.6955
11.7576	1.28529	1.73419	38.4933
11.8586	1.28529	1.73419	38.2912
11.9596	1.28529	1.73419	38.089
12.0606	1.28529	1.73419	37.8868
12.1616	1.28529	1.73419	37.6846
12.2626	1.28529	1.73419	37.4822
12.3636	1.28529	1.73419	37.2799
12.4646	1.28529	1.73419	37.0774
12.5657	1.28529	1.73419	36.8747
12.6667	1.28529	1.73419	36.6719
12.7677	1.28529	1.73419	36.469
12.8687	1.28529	1.73419	36.2657
12.9697	1.28529	1.73419	36.0622
13.0707	1.28529	1.73419	35.8582
13.1717	1.28529	1.73419	35.6538
13.2727	1.28529	1.73419	35.4487
13.3737	1.28529	1.73419	35.2428
13.4747	1.28529	1.73419	35.0359
13.5758	1.28529	1.73419	34.8277
13.6768	1.28529	1.73419	34.6178
13.7778	1.28529	1.73419	34.406
13.8788	1.28529	1.73419	34.1915
13.9798	1.28529	1.73419	33.9739
14.0808	1.28529	1.73419	33.7521
14.1818	1.28529	1.73419	33.5251
14.2828	1.28529	1.73419	33.2916
14.3838	1.28529	1.73419	33.0499
14.4848	1.28529	1.73419	32.7977
14.5859	1.28529	1.73419	32.5325
14.6869	1.28529	1.73419	32.2506
14.7879	1.28529	1.73419	31.9479
14.8889	1.28529	1.73419	31.6188
14.9899	1.28529	1.73419	31.2565
15.0909	1.28529	1.73419	30.8521
15.1919	1.28529	1.73419	30.3948
15.2929	1.28529	1.73419	29.8706
15.3939	1.28529	1.73419	29.262
15.4949	1.28529	1.73419	28.547
15.596	1.28529	1.73419	27.6977
15.697	1.28529	1.73419	26.6788
15.798	1.28529	1.73419	25.4461
15.899	1.28529	1.73419	23.9434
16	1.28529	1.73419	22.1002
6	1.29956	1.78218	47.7968
6.10101	1.29956	1.78218	48.0454
6.20202	1.29956	1.78218	48.2005
6.30303	1.29956	1.78218	48.2815
6.40404	1.29956	1.78218	48.3038
6.50505	1.29956	1.78218	48.2795
6.60606	1.29956	1.78218	48.2183
6.70707	1.29956	1.78218	48.1279
6.80808	1.29956	1.78218	48.0143
6.90909	1.29956	1.78218	47.8824
7.0101	1.29956	1.78218	47.736
7.11111	1.29956	1.78218	47.578
7.21212	1.29956	1.78218	47.4108
7.31313	1.29956	1.78218	47.2365
7.41414	1.29956	1.78218	47.0564
7.51515	1.29956	1.78218	46.8717
7.61616	1.29956	1.78218	46.6834
7.71717	1.29956	1.78218	46.4923
7.81818	1.29956	1.78218	46.2989
7.91919	1.29956	1.78218	46.1038
8.0202	1.29956	1.78218	45.9072
8.12121	1.29956	1.78218	45.7095
8.22222	1.29956	1.78218	45.5109
8.32323	1.29956	1.78218	45.3115
8.42424	1.29956	1.78218	45.1117
8.52525	1.29956	1.78218	44.9113
8.62626	1.29956	1.78218	44.7107
8.72727	1.29956	1.78218	44.5097
8.82828	1.29956	1.78218	44.3085
8.92929	1.29956	1.78218	44.1072
9.0303	1.29956	1.78218	43.9057
9.13131	1.29956	1.78218	43.7041
9.23232	1.29956	1.78218	43.5024
9.33333	1.29956	1.78218	43.3006
9.43434	1.29956	1.78218	43.0988
9.53535	1.29956	1.78218	42.897
9.63636	1.29956	1.78218	42.6951
9.73737	1.29956	1.78218	42.4932
9.83838	1.29956	1.78218	42.2912
9.93939	1.29956	1.78218	42.0893
10.0404	1.29956	1.78218	41.8873
10.1414	1.29956	1.78218	41.6853
10.2424	1.29956	1.78218	41.4833
10.3434	1.29956	1.78218	41.2813
10.4444	1.29956	1.78218	41.0793
10.5455	1.29956	1.78218	40.8773
10.6465	1.29956	1.78218	40.6753
10.7475	1.29956	1.78218	40.4733
10.8485	1.29956	1.78218	40.2713
10.9495	1.29956	1.78218	40.0692
11.0505	1.29956	1.78218	39.8672
11.1515	1.29956	1.78218	39.6652
11.2525	1.29956	1.78218	39.4631
11.3535	1.29956	1.78218	39.2611
11.4545	1.29956	1.78218	39.059
11.5556	1.29956	1.78218	38.8569
11.6566	1.29956	1.78218	38.6548
11.7576	1.29956	1.78218	38.4527
11.8586	1.29956	1.78218	38.2506
11.9596	1.29956	1.78218	38.0484
12.0606	1.29956	1.78218	37.8462
12.1616	1.29956	1.78218	37.6439
12.2626	1.29956	1.78218	37.4416
12.3636	1.29956	1.78218	37.2392
12.4646	1.29956	1.78218	37.0367
12.5657	1.29956	1.78218	36.8341
12.6667	1.29956	1.78218	36.6313
12.7677	1.29956	1.78218	36.4283
12.8687	1.29956	1.78218	36.2251
12.9697	1.29956	1.78218	36.0215
13.0707	1.29956	1.78218	35.8176
13.1717	1.29956	1.78218	35.6131
13.2727	1.29956	1.78218	35.408
13.3737	1.29956	1.78218	35.2021
13.4747	1.29956	1.78218	34.9952
13.5758	1.29956	1.78218	34.787
13.6768	1.29956	1.78218	34.5772
13.7778	1.29956	1.78218	34.3653
13.8788	1.29956	1.78218	34.1509
13.9798	1.29956	1.78218	33.9332
14.0808	1.29956	1.78218	33.7114
14.1818	1.29956	1.78218	33.4845
14.2828	1.29956	1.78218	33.251
14.3838	1.29956	1.78218	33.0092
14.4848	1.29956	1.78218	32.7571
14.5859	1.29956	1.78218	32.4918
14.6869	1.29956	1.78218	32.21
14.7879	1.29956	1.78218	31.9073
14.8889	1.29956	1.78218	31.5782
14.9899	1.29956	1.78218	31.2158
15.0909	1.29956	1.78218	30.8115
15.1919	1.29956	1.78218	30.3541
15.2929	1.29956	1.78218	29.8299
15.3939	1.29956	1.78218	29.2214
15.4949	1.29956	1.78218	28.5064
15.596	1.29956	1.78218	27.657
15.697	1.29956	1.78218	26.6382
15.798	1.29956	1.78218	25.4054
15.899	1.29956	1.78218	23.9028
16	1.29956	1.78218	22.0596
6	1.31382	1.82927	47.7556
6.10101	1.31382	1.82927	48.0042
6.20202	1.31382	1.82927	48.1593
6.30303	1.31382	1.82927	48.2402
6.40404	1.31382	1.82927	48.2625
6.50505	1.31382	1.82927	48.2382
6.60606	1.31382	1.82927	48.177
6.70707	1.31382	1.82927	48.0866
6.80808	1.31382	1.82927	47.9731
6.90909	1.31382	1.82927	47.8412
7.0101	1.31382	1.82927	47.6947
7.11111	1.31382	1.82927	47.5367
7.21212	1.31382	1.82927	47.3696
7.31313	1.31382	1.82927	47.1952
7.41414	1.31382	1.82927	47.0151
7.51515	1.31382	1.82927	46.8304
7.61616	1.31382	1.82927	46.6422
7.71717	1.31382	1.82927	46.4511
7.81818	1.31382	1.82927	46.2577
7.91919	1.31382	1.82927	46.0625
8.0202	1.31382	1.82927	45.8659
8.12121	1.31382	1.82927	45.6682
8.22222	1.31382	1.82927	45.4696
8.32323	1.31382	1.82927	45.2703
8.42424	1.31382	1.82927	45.0704
8.52525	1.31382	1.82927	44.8701
8.62626	1.31382	1.82927	44.6694
8.72727	1.31382	1.82927	44.4684
8.82828	1.31382	1.82927	44.2673
8.92929	1.31382	1.82927	44.0659
9.0303	1.31382	1.82927	43.8644
9.13131	1.31382	1.82927	43.6628
9.23232	1.31382	1.82927	43.4611
9.33333	1.31382	1.82927	43.2594
9.43434	1.31382	1.82927	43.0576
9.53535	1.31382	1.82927	42.8557
9.63636	1.31382	1.82927	42.6538
9.73737	1.31382	1.82927	42.4519
9.83838	1.31382	1.82927	42.25
9.93939	1.31382	1.82927	42.048
10.0404	1.31382	1.82927	41.846
10.1414	1.31382	1.82927	41.644
10.2424	1.31382	1.82927	41.4421
10.3434	1.31382	1.82927	41.2401
10.4444	1.31382	1.82927	41.0381
10.5455	1.31382	1.82927	40.836
10.6465	1.31382	1.82927	40.634
10.7475	1.31382	1.82927	40.432
10.8485	1.31382	1.82927	40.23
10.9495	1.31382	1.82927	40.028
11.0505	1.31382	1.82927	39.8259
11.1515	1.31382	1.82927	39.6239
11.2525	1.31382	1.82927	39.4218
11.3535	1.31382	1.82927	39.2198
11.4545	1.31382	1.82927	39.0177
11.5556	1.31382	1.82927	38.8156
11.6566	1.31382	1.82927	38.6135
11.7576	1.31382	1.82927	38.4114
11.8586	1.31382	1.82927	38.2093
11.9596	1.31382	1.82927	38.0071
12.0606	1.31382	1.82927	37.8049
12.1616	1.31382	1.82927	37.6027
12.2626	1.31382	1.82927	37.4003
12.3636	1.31382	1.82927	37.1979
12.4646	1.31382	1.82927	36.9954
12.5657	1.31382	1.82927	36.7928
12.6667	1.31382	1.82927	36.59
12.7677	1.31382	1.82927	36.3871
12.8687	1.31382	1.82927	36.1838
12.9697	1.31382	1.82927	35.9803
13.0707	1.31382	1.82927	35.7763
13.1717	1.31382	1.82927	35.5719
13.2727	1.31382	1.82927	35.3668
13.3737	1.31382	1.82927	35.1609
13.4747	1.31382	1.82927	34.954
13.5758	1.31382	1.82927	34.7458
13.6768	1.31382	1.82927	34.5359
13.7778	1.31382	1.82927	34.3241
13.8788	1.31382	1.82927	34.1096
13.9798	1.31382	1.82927	33.892
14.0808	1.31382	1.82927	33.6702
14.1818	1.31382	1.82927	33.4432
14.2828	1.31382	1.82927	33.2097
14.3838	1.31382	1.82927	32.968
14.4848	1.31382	1.82927	32.7158
14.5859	1.31382	1.82927	32.4506
14.6869	1.31382	1.82927	32.1687
14.7879	1.31382	1.82927	31.866
14.8889	1.31382	1.82927	31.5369
14.9899	1.31382	1.82927	31.1746
15.0909	1.31382	1.82927	30.7702
15.1919	1.31382	1.82927	30.3129
15.2929	1.31382	1.82927	29.7887
15.3939	1.31382	1.82927	29.1801
15.4949	1.31382	1.82927	28.4651
15.596	1.31382	1.82927	27.6158
15.697	1.31382	1.82927	26.5969
15.798	1.31382	1.82927	25.3642
15.899	1.31382	1.82927	23.8615
16	1.31382	1.82927	22.0183
6	1.32809	1.87025	47.7094
6.10101	1.32809	1.87025	47.958
6.20202	1.32809	1.87025	48.1131
6.30303	1.32809	1.87025	48.1941
6.40404	1.32809	1.87025	48.2163
6.50505	1.32809	1.87025	48.192
6.60606	1.32809	1.87025	48.1309
6.70707	1.32809	1.87025	48.0405
6.80808	1.32809	1.87025	47.9269
6.90909	1.32809	1.87025	47.795
7.0101	1.32809	1.87025	47.6485
7.11111	1.32809	1.87025	47.4905
7.21212	1.32809	1.87025	47.3234
7.31313	1.32809	1.87025	47.149
7.41414	1.32809	1.87025	46.9689
7.51515	1.32809	1.87025	46.7843
7.61616	1.32809	1.87025	46.596
7.71717	1.32809	1.87025	46.4049
7.81818	1.32809	1.87025	46.2115
7.91919	1.32809	1.87025	46.0163
8.0202	1.32809	1.87025	45.8197
8.12121	1.32809	1.87025	45.622
8.22222	1.32809	1.87025	45.4234
8.32323	1.32809	1.87025	45.2241
8.42424	1.32809	1.87025	45.0242
8.52525	1.32809	1.87025	44.8239
8.62626	1.32809	1.87025	44.6232
8.72727	1.32809	1.87025	44.4223
8.82828	1.32809	1.87025	44.2211
8.92929	1.32809	1.87025	44.0197
9.0303	1.32809	1.87025	43.8182
9.13131	1.32809	1.87025	43.6166
9.23232	1.32809	1.87025	43.415
9.33333	1.32809	1.87025	43.2132
9.43434	1.32809	1.87025	43.0114
9.53535	1.32809	1.87025	42.8095
9.63636	1.32809	1.87025	42.6076
9.73737	1.32809	1.87025	42.4057
9.83838	1.32809	1.87025	42.2038
9.93939	1.32809	1.87025	42.0018
10.0404	1.32809	1.87025	41.7999
10.1414	1.32809	1.87025	41.5979
10.2424	1.32809	1.87025	41.3959
10.3434	1.32809	1.87025	41.1939
10.4444	1.32809	1.87025	40.9919
10.5455	1.32809	1.87025	40.7899
10.6465	1.32809	1.87025	40.5879
10.7475	1.32809	1.87025	40.3858
10.8485	1.32809	1.87025	40.1838
10.9495	1.32809	1.87025	39.9818
11.0505	1.32809	1.87025	39.7798
11.1515	1.32809	1.87025	39.5777
11.2525	1.32809	1.87025	39.3757
11.3535	1.32809	1.87025	39.1736
11.4545	1.32809	1.87025	38.9715
11.5556	1.32809	1.87025	38.7695
11.6566	1.32809	1.87025	38.5674
11.7576	1.32809	1.87025	38.3653
11.8586	1.32809	1.87025	38.1631
11.9596	1.32809	1.87025	37.961
12.0606	1.32809	1.87025	37.7587
12.1616	1.32809	1.87025	37.5565
12.2626	1.32809	1.87025	37.3542
12.3636	1.32809	1.87025	37.1518
12.4646	1.32809	1.87025	36.9493
12.5657	1.32809	1.87025	36.7466
12.6667	1.32809	1.87025	36.5439
12.7677	1.32809	1.87025	36.3409
12.8687	1.32809	1.87025	36.1377
12.9697	1.32809	1.87025	35.9341
13.0707	1.32809	1.87025	35.7301
13.1717	1.32809	1.87025	35.5257
13.2727	1.32809	1.87025	35.3206
13.3737	1.32809	1.87025	35.1147
13.4747	1.32809	1.87025	34.9078
13.5758	1.32809	1.87025	34.6996
13.6768	1.32809	1.87025	34.4898
13.7778	1.32809	1.87025	34.2779
13.8788	1.32809	1.87025	34.0635
13.9798	1.32809	1.87025	33.8458
14.0808	1.32809	1.87025	33.624
14.1818	1.32809	1.87025	33.397
14.2828	1.32809	1.87025	33.1635
14.3838	1.32809	1.87025	32.9218
14.4848	1.32809	1.87025	32.6697
14.5859	1.32809	1.87025	32.4044
14.6869	1.32809	1.87025	32.1226
14.7879	1.32809	1.87025	31.8198
14.8889	1.32809	1.87025	31.4907
14.9899	1.32809	1.87025	31.1284
15.0909	1.32809	1.87025	30.724
15.1919	1.32809	1.87025	30.2667
15.2929	1.32809	1.87025	29.7425
15.3939	1.32809	1.87025	29.1339
15.4949	1.32809	1.87025	28.4189
15.596	1.32809	1.87025	27.5696
15.697	1.32809	1.87025	26.5507
15.798	1.32809	1.87025	25.318
15.899	1.32809	1.87025	23.8154
16	1.32809	1.87025	21.9721
6	1.34235	1.92141	47.6711
6.10101	1.34235	1.92141	47.9197
6.20202	1.34235	1.92141	48.0748
6.30303	1.34235	1.92141	48.1558
6.40404	1.34235	1.92141	48.1781
6.50505	1.34235	1.92141	48.1538
6.60606	1.34235	1.92141	48.0926
6.70707	1.34235	1.92141	48.0022
6.80808	1.34235	1.92141	47.8886
6.90909	1.34235	1.92141	47.7567
7.0101	1.34235	1.92141	47.6103
7.11111	1.34235	1.92141	47.4523
7.21212	1.34235	1.92141	47.2851
7.31313	1.34235	1.92141	47.1108
7.41414	1.34235	1.92141	46.9307
7.51515	1.34235	1.92141	46.746
7.61616	1.34235	1.92141	46.5577
7.71717	1.34235	1.92141	46.3666
7.81818	1.34235	1.92141	46.1732
7.91919	1.34235	1.92141	45.9781
8.0202	1.34235	1.92141	45.7815
8.12121	1.34235	1.92141	45.5838
8.22222	1.34235	1.92141	45.3852
8.32323	1.34235	1.92141	45.1858
8.42424	1.34235	1.92141	44.986
8.52525	1.34235	1.92141	44.7856
8.62626	1.34235	1.92141	44.585
8.72727	1.34235	1.92141	44.384
8.82828	1.34235	1.92141	44.1828
8.92929	1.34235	1.92141	43.9815
9.0303	1.34235	1.92141	43.78
9.13131	1.34235	1.92141	43.5784
9.23232	1.34235	1.92141	43.3767
9.33333	1.34235	1.92141	43.1749
9.43434	1.34235	1.92141	42.9731
9.53535	1.34235	1.92141	42.7713
9.63636	1.34235	1.92141	42.5694
9.73737	1.34235	1.92141	42.3675
9.83838	1.34235	1.92141	42.1655
9.93939	1.34235	1.92141	41.9636
10.0404	1.34235	1.92141	41.7616
10.1414	1.34235	1.92141	41.5596
10.2424	1.34235	1.92141	41.3576
10.3434	1.34235	1.92141	41.1556
10.4444	1.34235	1.92141	40.9536
10.5455	1.34235	1.92141	40.7516
10.6465	1.34235	1.92141	40.5496
10.7475	1.34235	1.92141	40.3476
10.8485	1.34235	1.92141	40.1456
10.9495	1.34235	1.92141	39.9435
11.0505	1.34235	1.92141	39.7415
11.1515	1.34235	1.92141	39.5395
11.2525	1.34235	1.92141	39.3374
11.3535	1.34235	1.92141	39.1354
11.4545	1.34235	1.92141	38.9333
11.5556	1.34235	1.92141	38.7312
11.6566	1.34235	1.92141	38.5291
11.7576	1.34235	1.92141	38.327
11.8586	1.34235	1.92141	38.1249
11.9596	1.34235	1.92141	37.9227
12.0606	1.34235	1.92141	37.7205
12.1616	1.34235	1.92141	37.5182
12.2626	1.34235	1.92141	37.3159
12.3636	1.34235	1.92141	37.1135
12.4646	1.34235	1.92141	36.911
12.5657	1.34235	1.92141	36.7084
12.6667	1.34235	1.92141	36.5056
12.7677	1.34235	1.92141	36.3026
12.8687	1.34235	1.92141	36.0994
12.9697	1.34235	1.92141	35.8958
13.0707	1.34235	1.92141	35.6919
13.1717	1.34235	1.92141	35.4874
13.2727	1.34235	1.92141	35.2823
13.3737	1.34235	1.92141	35.0764
13.4747	1.34235	1.92141	34.8695
13.5758	1.34235	1.92141	34.6613
13.6768	1.34235	1.92141	34.4515
13.7778	1.34235	1.92141	34.2396
13.8788	1.34235	1.92141	34.0252
13.9798	1.34235	1.92141	33.8075
14.0808	1.34235	1.92141	33.5857
14.1818	1.34235	1.92141	33.3588
14.2828	1.34235	1.92141	33.1253
14.3838	1.34235	1.92141	32.8835
14.4848	1.34235	1.92141	32.6314
14.5859	1.34235	1.92141	32.3661
14.6869	1.34235	1.92141	32.0843
14.7879	1.34235	1.92141	31.7816
14.8889	1.34235	1.92141	31.4525
14.9899	1.34235	1.92141	31.0901
15.0909	1.34235	1.92141	30.6858
15.1919	1.34235	1.92141	30.2284
15.2929	1.34235	1.92141	29.7042
15.3939	1.34235	1.92141	29.0957
15.4949	1.34235	1.92141	28.3807
15.596	1.34235	1.92141	27.5313
15.697	1.34235	1.92141	26.5125
15.798	1.34235	1.92141	25.2797
15.899	1.34235	1.92141	23.7771
16	1.34235	1.92141	21.9339
6	1.35662	1.96674	47.628
6.10101	1.35662	1.96674	47.8766
6.20202	1.35662	1.96674	48.0316
6.30303	1.35662	1.96674	48.1126
6.40404	1.35662	1.96674	48.1349
6.50505	1.35662	1.96674	48.1106
6.60606	1.35662	1.96674	48.0494
6.70707	1.35662	1.96674	47.959
6.80808	1.35662	1.96674	47.8455
6.90909	1.35662	1.96674	47.7135
7.0101	1.35662	1.96674	47.5671
7.11111	1.35662	1.96674	47.4091
7.21212	1.35662	1.96674	47.242
7.31313	1.35662	1.96674	47.0676
7.41414	1.35662	1.96674	46.8875
7.51515	1.35662	1.96674	46.7028
7.61616	1.35662	1.96674	46.5146
7.71717	1.35662	1.96674	46.3234
7.81818	1.35662	1.96674	46.1301
7.91919	1.35662	1.96674	45.9349
8.0202	1.35662	1.96674	45.7383
8.12121	1.35662	1.96674	45.5406
8.22222	1.35662	1.96674	45.342
8.32323	1.35662	1.96674	45.1427
8.42424	1.35662	1.96674	44.9428
8.52525	1.35662	1.96674	44.7425
8.62626	1.35662	1.96674	44.5418
8.72727	1.35662	1.96674	44.3408
8.82828	1.35662	1.96674	44.1396
8.92929	1.35662	1.96674	43.9383
9.0303	1.35662	1.96674	43.7368
9.13131	1.35662	1.96674	43.5352
9.23232	1.35662	1.96674	43.3335
9.33333	1.35662	1.96674	43.1318
9.43434	1.35662	1.96674	42.9299
9.53535	1.35662	1.96674	42.7281
9.63636	1.35662	1.96674	42.5262
9.73737	1.35662	1.96674	42.3243
9.83838	1.35662	1.96674	42.1223
9.93939	1.35662	1.96674	41.9204
10.0404	1.35662	1.96674	41.7184
10.1414	1.35662	1.96674	41.5164
10.2424	1.35662	1.96674	41.3144
10.3434	1.35662	1.96674	41.1124
10.4444	1.35662	1.96674	40.9104
10.5455	1.35662	1.96674	40.7084
10.6465	1.35662	1.96674	40.5064
10.7475	1.35662	1.96674	40.3044
10.8485	1.35662	1.96674	40.1024
10.9495	1.35662	1.96674	39.9003
11.0505	1.35662	1.96674	39.6983
11.1515	1.35662	1.96674	39.4963
11.2525	1.35662	1.96674	39.2942
11.3535	1.35662	1.96674	39.0922
11.4545	1.35662	1.96674	38.8901
11.5556	1.35662	1.96674	38.688
11.6566	1.35662	1.96674	38.4859
11.7576	1.35662	1.96674	38.2838
11.8586	1.35662	1.96674	38.0817
11.9596	1.35662	1.96674	37.8795
12.0606	1.35662	1.96674	37.6773
12.1616	1.35662	1.96674	37.4751
12.2626	1.35662	1.96674	37.2727
12.3636	1.35662	1.96674	37.0703
12.4646	1.35662	1.96674	36.8678
12.5657	1.35662	1.96674	36.6652
12.6667	1.35662	1.96674	36.4624
12.7677	1.35662	1.96674	36.2594
12.8687	1.35662	1.96674	36.0562
12.9697	1.35662	1.96674	35.8527
13.0707	1.35662	1.96674	35.6487
13.1717	1.35662	1.96674	35.4443
13.2727	1.35662	1.96674	35.2392
13.3737	1.35662	1.96674	35.0333
13.4747	1.35662	1.96674	34.8263
13.5758	1.35662	1.96674	34.6181
13.6768	1.35662	1.96674	34.4083
13.7778	1.35662	1.96674	34.1965
13.8788	1.35662	1.96674	33.982
13.9798	1.35662	1.96674	33.7643
14.0808	1.35662	1.96674	33.5426
14.1818	1.35662	1.96674	33.3156
14.2828	1.35662	1.96674	33.0821
14.3838	1.35662	1.96674	32.8404
14.4848	1.35662	1.96674	32.5882
14.5859	1.35662	1.96674	32.323
14.6869	1.35662	1.96674	32.0411
14.7879	1.35662	1.96674	31.7384
14.8889	1.35662	1.96674	31.4093
14.9899	1.35662	1.96674	31.0469
15.0909	1.35662	1.96674	30.6426
15.1919	1.35662	1.96674	30.1853
15.2929	1.35662	1.96674	29.6611
15.3939	1.35662	1.96674	29.0525
15.4949	1.35662	1.96674	28.3375
15.596	1.35662	1.96674	27.4881
15.697	1.35662	1.96674	26.4693
15.798	1.35662	1.96674	25.2366
15.899	1.35662	1.96674	23.7339
16	1.35662	1.96674	21.8907
6	1.37088	2.01174	47.5841
6.10101	1.37088	2.01174	47.8327
6.20202	1.37088	2.01174	47.9878
6.30303	1.37088	2.01174	48.0688
6.40404	1.37088	2.01174	48.091
6.50505	1.37088	2.01174	48.0667
6.60606	1.37088	2.01174	48.0056
6.70707	1.37088	2.01174	47.9152
6.80808	1.37088	2.01174	47.8016
6.90909	1.37088	2.01174	47.6697
7.0101	1.37088	2.01174	47.5232
7.11111	1.37088	2.01174	47.3652
7.21212	1.37088	2.01174	47.1981
7.31313	1.37088	2.01174	47.0237
7.41414	1.37088	2.01174	46.8436
7.51515	1.37088	2.01174	46.659
7.61616	1.37088	2.01174	46.4707
7.71717	1.37088	2.01174	46.2796
7.81818	1.37088	2.01174	46.0862
7.91919	1.37088	2.01174	45.891
8.0202	1.37088	2.01174	45.6945
8.12121	1.37088	2.01174	45.4967
8.22222	1.37088	2.01174	45.2981
8.32323	1.37088	2.01174	45.0988
8.42424	1.37088	2.01174	44.8989
8.52525	1.37088	2.01174	44.6986
8.62626	1.37088	2.01174	44.4979
8.72727	1.37088	2.01174	44.297
8.82828	1.37088	2.01174	44.0958
8.92929	1.37088	2.01174	43.8944
9.0303	1.37088	2.01174	43.693
9.13131	1.37088	2.01174	43.4914
9.23232	1.37088	2.01174	43.2897
9.33333	1.37088	2.01174	43.0879
9.43434	1.37088	2.01174	42.8861
9.53535	1.37088	2.01174	42.6842
9.63636	1.37088	2.01174	42.4824
9.73737	1.37088	2.01174	42.2804
9.83838	1.37088	2.01174	42.0785
9.93939	1.37088	2.01174	41.8765
10.0404	1.37088	2.01174	41.6746
10.1414	1.37088	2.01174	41.4726
10.2424	1.37088	2.01174	41.2706
10.3434	1.37088	2.01174	41.0686
10.4444	1.37088	2.01174	40.8666
10.5455	1.37088	2.01174	40.6646
10.6465	1.37088	2.01174	40.4626
10.7475	1.37088	2.01174	40.2606
10.8485	1.37088	2.01174	40.0585
10.9495	1.37088	2.01174	39.8565
11.0505	1.37088	2.01174	39.6545
11.1515	1.37088	2.01174	39.4524
11.2525	1.37088	2.01174	39.2504
11.3535	1.37088	2.01174	39.0483
11.4545	1.37088	2.01174	38.8463
11.5556	1.37088	2.01174	38.6442
11.6566	1.37088	2.01174	38.4421
11.7576	1.37088	2.01174	38.24
11.8586	1.37088	2.01174	38.0378
11.9596	1.37088	2.01174	37.8357
12.0606	1.37088	2.01174	37.6335
12.1616	1.37088	2.01174	37.4312
12.2626	1.37088	2.01174	37.2289
12.3636	1.37088	2.01174	37.0265
12.4646	1.37088	2.01174	36.824
12.5657	1.37088	2.01174	36.6214
12.6667	1.37088	2.01174	36.4186
12.7677	1.37088	2.01174	36.2156
12.8687	1.37088	2.01174	36.0124
12.9697	1.37088	2.01174	35.8088
13.0707	1.37088	2.01174	35.6049
13.1717	1.37088	2.01174	35.4004
13.2727	1.37088	2.01174	35.1953
13.3737	1.37088	2.01174	34.9894
13.4747	1.37088	2.01174	34.7825
13.5758	1.37088	2.01174	34.5743
13.6768	1.37088	2.01174	34.3645
13.7778	1.37088	2.01174	34.1526
13.8788	1.37088	2.01174	33.9382
13.9798	1.37088	2.01174	33.7205
14.0808	1.37088	2.01174	33.4987
14.1818	1.37088	2.01174	33.2717
14.2828	1.37088	2.01174	33.0382
14.3838	1.37088	2.01174	32.7965
14.4848	1.37088	2.01174	32.5444
14.5859	1.37088	2.01174	32.2791
14.6869	1.37088	2.01174	31.9973
14.7879	1.37088	2.01174	31.6946
14.8889	1.37088	2.01174	31.3655
14.9899	1.37088	2.01174	31.0031
15.0909	1.37088	2.01174	30.5987
15.1919	1.37088	2.01174	30.1414
15.2929	1.37088	2.01174	29.6172
15.3939	1.37088	2.01174	29.0087
15.4949	1.37088	2.01174	28.2936
15.596	1.37088	2.01174	27.4443
15.697	1.37088	2.01174	26.4255
15.798	1.37088	2.01174	25.1927
15.899	1.37088	2.01174	23.6901
16	1.37088	2.01174	21.8469
6	1.38515	2.06193	47.5438
6.10101	1.38515	2.06193	47.7924
6.20202	1.38515	2.06193	47.9475
6.30303	1.38515	2.06193	48.0285
6.40404	1.38515	2.06193	48.0507
6.50505	1.38515	2.06193	48.0264
6.60606	1.38515	2.06193	47.9653
6.70707	1.38515	2.06193	47.8749
6.80808	1.38515	2.06193	47.7613
6.90909	1.38515	2.06193	47.6294
7.0101	1.38515	2.06193	47.4829
7.11111	1.38515	2.06193	47.3249
7.21212	1.38515	2.06193	47.1578
7.31313	1.38515	2.06193	46.9834
7.41414	1.38515	2.06193	46.8033
7.51515	1.38515	2.06193	46.6187
7.61616	1.38515	2.06193	46.4304
7.71717	1.38515	2.06193	46.2393
7.81818	1.38515	2.06193	46.0459
7.91919	1.38515	2.06193	45.8507
8.0202	1.38515	2.06193	45.6542
8.12121	1.38515	2.06193	45.4564
8.22222	1.38515	2.06193	45.2578
8.32323	1.38515	2.06193	45.0585
8.42424	1.38515	2.06193	44.8586
8.52525	1.38515	2.06193	44.6583
8.62626	1.38515	2.06193	44.4576
8.72727	1.38515	2.06193	44.2567
8.82828	1.38515	2.06193	44.0555
8.92929	1.38515	2.06193	43.8541
9.0303	1.38515	2.06193	43.6527
9.13131	1.38515	2.06193	43.4511
9.23232	1.38515	2.06193	43.2494
9.33333	1.38515	2.06193	43.0476
9.43434	1.38515	2.06193	42.8458
9.53535	1.38515	2.06193	42.6439
9.63636	1.38515	2.06193	42.4421
9.73737	1.38515	2.06193	42.2401
9.83838	1.38515	2.06193	42.0382
9.93939	1.38515	2.06193	41.8362
10.0404	1.38515	2.06193	41.6343
10.1414	1.38515	2.06193	41.4323
10.2424	1.38515	2.06193	41.2303
10.3434	1.38515	2.06193	41.0283
10.4444	1.38515	2.06193	40.8263
10.5455	1.38515	2.06193	40.6243
10.6465	1.38515	2.06193	40.4223
10.7475	1.38515	2.06193	40.2203
10.8485	1.38515	2.06193	40.0182
10.9495	1.38515	2.06193	39.8162
11.0505	1.38515	2.06193	39.6142
11.1515	1.38515	2.06193	39.4121
11.2525	1.38515	2.06193	39.2101
11.3535	1.38515	2.06193	39.008
11.4545	1.38515	2.06193	38.806
11.5556	1.38515	2.06193	38.6039
11.6566	1.38515	2.06193	38.4018
11.7576	1.38515	2.06193	38.1997
11.8586	1.38515	2.06193	37.9975
11.9596	1.38515	2.06193	37.7954
12.0606	1.38515	2.06193	37.5932
12.1616	1.38515	2.06193	37.3909
12.2626	1.38515	2.06193	37.1886
12.3636	1.38515	2.06193	36.9862
12.4646	1.38515	2.06193	36.7837
12.5657	1.38515	2.06193	36.5811
12.6667	1.38515	2.06193	36.3783
12.7677	1.38515	2.06193	36.1753
12.8687	1.38515	2.06193	35.9721
12.9697	1.38515	2.06193	35.7685
13.0707	1.38515	2.06193	35.5646
13.1717	1.38515	2.06193	35.3601
13.2727	1.38515	2.06193	35.155
13.3737	1.38515	2.06193	34.9491
13.4747	1.38515	2.06193	34.7422
13.5758	1.38515	2.06193	34.534
13.6768	1.38515	2.06193	34.3242
13.7778	1.38515	2.06193	34.1123
13.8788	1.38515	2.06193	33.8979
13.9798	1.38515	2.06193	33.6802
14.0808	1.38515	2.06193	33.4584
14.1818	1.38515	2.06193	33.2314
14.2828	1.38515	2.06193	32.9979
14.3838	1.38515	2.06193	32.7562
14.4848	1.38515	2.06193	32.5041
14.5859	1.38515	2.06193	32.2388
14.6869	1.38515	2.06193	31.957
14.7879	1.38515	2.06193	31.6543
14.8889	1.38515	2.06193	31.3252
14.9899	1.38515	2.06193	30.9628
15.0909	1.38515	2.06193	30.5584
15.1919	1.38515	2.06193	30.1011
15.2929	1.38515	2.06193	29.5769
15.3939	1.38515	2.06193	28.9684
15.4949	1.38515	2.06193	28.2533
15.596	1.38515	2.06193	27.404
15.697	1.38515	2.06193	26.3852
15.798	1.38515	2.06193	25.1524
15.899	1.38515	2.06193	23.6498
16	1.38515	2.06193	21.8066
6	1.39941	2.10661	47.4985
6.10101	1.39941	2.10661	47.7471
6.20202	1.39941	2.10661	47.9022
6.30303	1.39941	2.10661	47.9832
6.40404	1.39941	2.10661	48.0054
6.50505	1.39941	2.10661	47.9811
6.60606	1.39941	2.10661	47.92
6.70707	1.39941	2.10661	47.8296
6.80808	1.39941	2.10661	47.716
6.90909	1.39941	2.10661	47.5841
7.0101	1.39941	2.10661	47.4376
7.11111	1.39941	2.10661	47.2796
7.21212	1.39941	2.10661	47.1125
7.31313	1.39941	2.10661	46.9381
7.41414	1.39941	2.10661	46.758
7.51515	1.39941	2.10661	46.5734
7.61616	1.39941	2.10661	46.3851
7.71717	1.39941	2.10661	46.194
7.81818	1.39941	2.10661	46.0006
7.91919	1.39941	2.10661	45.8054
8.0202	1.39941	2.10661	45.6088
8.12121	1.39941	2.10661	45.4111
8.22222	1.39941	2.10661	45.2125
8.32323	1.39941	2.10661	45.0132
8.42424	1.39941	2.10661	44.8133
8.52525	1.39941	2.10661	44.613
8.62626	1.39941	2.10661	44.4123
8.72727	1.39941	2.10661	44.2114
8.82828	1.39941	2.10661	44.0102
8.92929	1.39941	2.10661	43.8088
9.0303	1.39941	2.10661	43.6073
9.13131	1.39941	2.10661	43.4057
9.23232	1.39941	2.10661	43.2041
9.33333	1.39941	2.10661	43.0023
9.43434	1.39941	2.10661	42.8005
9.53535	1.39941	2.10661	42.5986
9.63636	1.39941	2.10661	42.3967
9.73737	1.39941	2.10661	42.1948
9.83838	1.39941	2.10661	41.9929
9.93939	1.39941	2.10661	41.7909
10.0404	1.39941	2.10661	41.589
10.1414	1.39941	2.10661	41.387
10.2424	1.39941	2.10661	41.185
10.3434	1.39941	2.10661	40.983
10.4444	1.39941	2.10661	40.781
10.5455	1.39941	2.10661	40.579
10.6465	1.39941	2.10661	40.377
10.7475	1.39941	2.10661	40.1749
10.8485	1.39941	2.10661	39.9729
10.9495	1.39941	2.10661	39.7709
11.0505	1.39941	2.10661	39.5689
11.1515	1.39941	2.10661	39.3668
11.2525	1.39941	2.10661	39.1648
11.3535	1.39941	2.10661	38.9627
11.4545	1.39941	2.10661	38.7606
11.5556	1.39941	2.10661	38.5586
11.6566	1.39941	2.10661	38.3565
11.7576	1.39941	2.10661	38.1544
11.8586	1.39941	2.10661	37.9522
11.9596	1.39941	2.10661	37.7501
12.0606	1.39941	2.10661	37.5478
12.1616	1.39941	2.10661	37.3456
12.2626	1.39941	2.10661	37.1433
12.3636	1.39941	2.10661	36.9409
12.4646	1.39941	2.10661	36.7384
12.5657	1.39941	2.10661	36.5357
12.6667	1.39941	2.10661	36.333
12.7677	1.39941	2.10661	36.13
12.8687	1.39941	2.10661	35.9268
12.9697	1.39941	2.10661	35.7232
13.0707	1.39941	2.10661	35.5193
13.1717	1.39941	2.10661	35.3148
13.2727	1.39941	2.10661	35.1097
13.3737	1.39941	2.10661	34.9038
13.4747	1.39941	2.10661	34.6969
13.5758	1.39941	2.10661	34.4887
13.6768	1.39941	2.10661	34.2789
13.7778	1.39941	2.10661	34.067
13.8788	1.39941	2.10661	33.8526
13.9798	1.39941	2.10661	33.6349
14.0808	1.39941	2.10661	33.4131
14.1818	1.39941	2.10661	33.1861
14.2828	1.39941	2.10661	32.9526
14.3838	1.39941	2.10661	32.7109
14.4848	1.39941	2.10661	32.4588
14.5859	1.39941	2.10661	32.1935
14.6869	1.39941	2.10661	31.9117
14.7879	1.39941	2.10661	31.6089
14.8889	1.39941	2.10661	31.2799
14.9899	1.39941	2.10661	30.9175
15.0909	1.39941	2.10661	30.5131
15.1919	1.39941	2.10661	30.0558
15.2929	1.39941	2.10661	29.5316
15.3939	1.39941	2.10661	28.923
15.4949	1.39941	2.10661	28.208
15.596	1.39941	2.10661	27.3587
15.697	1.39941	2.10661	26.3398
15.798	1.39941	2.10661	25.1071
15.899	1.39941	2.10661	23.6045
16	1.39941	2.10661	21.7612
6	1.41368	2.15671	47.4567
6.10101	1.41368	2.15671	47.7053
6.20202	1.41368	2.15671	47.8604
6.30303	1.41368	2.15671	47.9413
6.40404	1.41368	2.15671	47.9636
6.50505	1.41368	2.15671	47.9393
6.60606	1.41368	2.15671	47.8781
6.70707	1.41368	2.15671	47.7877
6.80808	1.41368	2.15671	47.6742
6.90909	1.41368	2.15671	47.5423
7.0101	1.41368	2.15671	47.3958
7.11111	1.41368	2.15671	47.2378
7.21212	1.41368	2.15671	47.0707
7.31313	1.41368	2.15671	46.8963
7.41414	1.41368	2.15671	46.7162
7.51515	1.41368	2.15671	46.5315
7.61616	1.41368	2.15671	46.3433
7.71717	1.41368	2.15671	46.1522
7.81818	1.41368	2.15671	45.9588
7.91919	1.41368	2.15671	45.7636
8.0202	1.41368	2.15671	45.567
8.12121	1.41368	2.15671	45.3693
8.22222	1.41368	2.15671	45.1707
8.32323	1.41368	2.15671	44.9714
8.42424	1.41368	2.15671	44.7715
8.52525	1.41368	2.15671	44.5712
8.62626	1.41368	2.15671	44.3705
8.72727	1.41368	2.15671	44.1695
8.82828	1.41368	2.15671	43.9684
8.92929	1.41368	2.15671	43.767
9.0303	1.41368	2.15671	43.5655
9.13131	1.41368	2.15671	43.3639
9.23232	1.41368	2.15671	43.1622
9.33333	1.41368	2.15671	42.9605
9.43434	1.41368	2.15671	42.7587
9.53535	1.41368	2.15671	42.5568
9.63636	1.41368	2.15671	42.3549
9.73737	1.41368	2.15671	42.153
9.83838	1.41368	2.15671	41.9511
9.93939	1.41368	2.15671	41.7491
10.0404	1.41368	2.15671	41.5471
10.1414	1.41368	2.15671	41.3451
10.2424	1.41368	2.15671	41.1432
10.3434	1.41368	2.15671	40.9412
10.4444	1.41368	2.15671	40.7392
10.5455	1.41368	2.15671	40.5371
10.6465	1.41368	2.15671	40.3351
10.7475	1.41368	2.15671	40.1331
10.8485	1.41368	2.15671	39.9311
10.9495	1.41368	2.15671	39.7291
11.0505	1.41368	2.15671	39.527
11.1515	1.41368	2.15671	39.325
11.2525	1.41368	2.15671	39.1229
11.3535	1.41368	2.15671	38.9209
11.4545	1.41368	2.15671	38.7188
11.5556	1.41368	2.15671	38.5167
11.6566	1.41368	2.15671	38.3146
11.7576	1.41368	2.15671	38.1125
11.8586	1.41368	2.15671	37.9104
11.9596	1.41368	2.15671	37.7082
12.0606	1.41368	2.15671	37.506
12.1616	1.41368	2.15671	37.3038
12.2626	1.41368	2.15671	37.1014
12.3636	1.41368	2.15671	36.899
12.4646	1.41368	2.15671	36.6965
12.5657	1.41368	2.15671	36.4939
12.6667	1.41368	2.15671	36.2911
12.7677	1.41368	2.15671	36.0882
12.8687	1.41368	2.15671	35.8849
12.9697	1.41368	2.15671	35.6814
13.0707	1.41368	2.15671	35.4774
13.1717	1.41368	2.15671	35.273
13.2727	1.41368	2.15671	35.0679
13.3737	1.41368	2.15671	34.862
13.4747	1.41368	2.15671	34.655
13.5758	1.41368	2.15671	34.4469
13.6768	1.41368	2.15671	34.237
13.7778	1.41368	2.15671	34.0252
13.8788	1.41368	2.15671	33.8107
13.9798	1.41368	2.15671	33.5931
14.0808	1.41368	2.15671	33.3713
14.1818	1.41368	2.15671	33.1443
14.2828	1.41368	2.15671	32.9108
14.3838	1.41368	2.15671	32.6691
14.4848	1.41368	2.15671	32.4169
14.5859	1.41368	2.15671	32.1517
14.6869	1.41368	2.15671	31.8698
14.7879	1.41368	2.15671	31.5671
14.8889	1.41368	2.15671	31.238
14.9899	1.41368	2.15671	30.8757
15.0909	1.41368	2.15671	30.4713
15.1919	1.41368	2.15671	30.014
15.2929	1.41368	2.15671	29.4898
15.3939	1.41368	2.15671	28.8812
15.4949	1.41368	2.15671	28.1662
15.596	1.41368	2.15671	27.3169
15.697	1.41368	2.15671	26.298
15.798	1.41368	2.15671	25.0653
15.899	1.41368	2.15671	23.5626
16	1.41368	2.15671	21.7194
6	1.42794	2.20689	47.414
6.10101	1.42794	2.20689	47.6626
6.20202	1.42794	2.20689	47.8177
6.30303	1.42794	2.20689	47.8987
6.40404	1.42794	2.20689	47.9209
6.50505	1.42794	2.20689	47.8966
6.60606	1.42794	2.20689	47.8355
6.70707	1.42794	2.20689	47.7451
6.80808	1.42794	2.20689	47.6315
6.90909	1.42794	2.20689	47.4996
7.0101	1.42794	2.20689	47.3531
7.11111	1.42794	2.20689	47.1951
7.21212	1.42794	2.20689	47.028
7.31313	1.42794	2.20689	46.8536
7.41414	1.42794	2.20689	46.6735
7.51515	1.42794	2.20689	46.4889
7.61616	1.42794	2.20689	46.3006
7.71717	1.42794	2.20689	46.1095
7.81818	1.42794	2.20689	45.9161
7.91919	1.42794	2.20689	45.7209
8.0202	1.42794	2.20689	45.5243
8.12121	1.42794	2.20689	45.3266
8.22222	1.42794	2.20689	45.128
8.32323	1.42794	2.20689	44.9287
8.42424	1.42794	2.20689	44.7288
8.52525	1.42794	2.20689	44.5285
8.62626	1.42794	2.20689	44.3278
8.72727	1.42794	2.20689	44.1269
8.82828	1.42794	2.20689	43.9257
8.92929	1.42794	2.20689	43.7243
9.0303	1.42794	2.20689	43.5228
9.13131	1.42794	2.20689	43.3212
9.23232	1.42794	2.20689	43.1196
9.33333	1.42794	2.20689	42.9178
9.43434	1.42794	2.20689	42.716
9.53535	1.42794	2.20689	42.5141
9.63636	1.42794	2.20689	42.3122
9.73737	1.42794	2.20689	42.1103
9.83838	1.42794	2.20689	41.9084
9.93939	1.42794	2.20689	41.7064
10.0404	1.42794	2.20689	41.5045
10.1414	1.42794	2.20689	41.3025
10.2424	1.42794	2.20689	41.1005
10.3434	1.42794	2.20689	40.8985
10.4444	1.42794	2.20689	40.6965
10.5455	1.42794	2.20689	40.4945
10.6465	1.42794	2.20689	40.2925
10.7475	1.42794	2.20689	40.0904
10.8485	1.42794	2.20689	39.8884
10.9495	1.42794	2.20689	39.6864
11.0505	1.42794	2.20689	39.4844
11.1515	1.42794	2.20689	39.2823
11.2525	1.42794	2.20689	39.0803
11.3535	1.42794	2.20689	38.8782
11.4545	1.42794	2.20689	38.6761
11.5556	1.42794	2.20689	38.4741
11.6566	1.42794	2.20689	38.272
11.7576	1.42794	2.20689	38.0699
11.8586	1.42794	2.20689	37.8677
11.9596	1.42794	2.20689	37.6656
12.0606	1.42794	2.20689	37.4633
12.1616	1.42794	2.20689	37.2611
12.2626	1.42794	2.20689	37.0588
12.3636	1.42794	2.20689	36.8564
12.4646	1.42794	2.20689	36.6539
12.5657	1.42794	2.20689	36.4512
12.6667	1.42794	2.20689	36.2485
12.7677	1.42794	2.20689	36.0455
12.8687	1.42794	2.20689	35.8423
12.9697	1.42794	2.20689	35.6387
13.0707	1.42794	2.20689	35.4348
13.1717	1.42794	2.20689	35.2303
13.2727	1.42794	2.20689	35.0252
13.3737	1.42794	2.20689	34.8193
13.4747	1.42794	2.20689	34.6124
13.5758	1.42794	2.20689	34.4042
13.6768	1.42794	2.20689	34.1944
13.7778	1.42794	2.20689	33.9825
13.8788	1.42794	2.20689	33.7681
13.9798	1.42794	2.20689	33.5504
14.0808	1.42794	2.20689	33.3286
14.1818	1.42794	2.20689	33.1016
14.2828	1.42794	2.20689	32.8681
14.3838	1.42794	2.20689	32.6264
14.4848	1.42794	2.20689	32.3743
14.5859	1.42794	2.20689	32.109
14.6869	1.42794	2.20689	31.8272
14.7879	1.42794	2.20689	31.5244
14.8889	1.42794	2.20689	31.1954
14.9899	1.42794	2.20689	30.833
15.0909	1.42794	2.20689	30.4286
15.1919	1.42794	2.20689	29.9713
15.2929	1.42794	2.20689	29.4471
15.3939	1.42794	2.20689	28.8385
15.4949	1.42794	2.20689	28.1235
15.596	1.42794	2.20689	27.2742
15.697	1.42794	2.20689	26.2553
15.798	1.42794	2.20689	25.0226
15.899	1.42794	2.20689	23.52
16	1.42794	2.20689	21.6767
6	1.44221	2.25725	47.3704
6.10101	1.44221	2.25725	47.619
6.20202	1.44221	2.25725	47.7741
6.30303	1.44221	2.25725	47.8551
6.40404	1.44221	2.25725	47.8773
6.50505	1.44221	2.25725	47.8531
6.60606	1.44221	2.25725	47.7919
6.70707	1.44221	2.25725	47.7015
6.80808	1.44221	2.25725	47.5879
6.90909	1.44221	2.25725	47.456
7.0101	1.44221	2.25725	47.3095
7.11111	1.44221	2.25725	47.1515
7.21212	1.44221	2.25725	46.9844
7.31313	1.44221	2.25725	46.81
7.41414	1.44221	2.25725	46.6299
7.51515	1.44221	2.25725	46.4453
7.61616	1.44221	2.25725	46.257
7.71717	1.44221	2.25725	46.0659
7.81818	1.44221	2.25725	45.8725
7.91919	1.44221	2.25725	45.6774
8.0202	1.44221	2.25725	45.4808
8.12121	1.44221	2.25725	45.283
8.22222	1.44221	2.25725	45.0844
8.32323	1.44221	2.25725	44.8851
8.42424	1.44221	2.25725	44.6852
8.52525	1.44221	2.25725	44.4849
8.62626	1.44221	2.25725	44.2842
8.72727	1.44221	2.25725	44.0833
8.82828	1.44221	2.25725	43.8821
8.92929	1.44221	2.25725	43.6808
9.0303	1.44221	2.25725	43.4793
9.13131	1.44221	2.25725	43.2777
9.23232	1.44221	2.25725	43.076
9.33333	1.44221	2.25725	42.8742
9.43434	1.44221	2.25725	42.6724
9.53535	1.44221	2.25725	42.4706
9.63636	1.44221	2.25725	42.2687
9.73737	1.44221	2.25725	42.0667
9.83838	1.44221	2.25725	41.8648
9.93939	1.44221	2.25725	41.6629
10.0404	1.44221	2.25725	41.4609
10.1414	1.44221	2.25725	41.2589
10.2424	1.44221	2.25725	41.0569
10.3434	1.44221	2.25725	40.8549
10.4444	1.44221	2.25725	40.6529
10.5455	1.44221	2.25725	40.4509
10.6465	1.44221	2.25725	40.2489
10.7475	1.44221	2.25725	40.0469
10.8485	1.44221	2.25725	39.8448
10.9495	1.44221	2.25725	39.6428
11.0505	1.44221	2.25725	39.4408
11.1515	1.44221	2.25725	39.2387
11.2525	1.44221	2.25725	39.0367
11.3535	1.44221	2.25725	38.8346
11.4545	1.44221	2.25725	38.6326
11.5556	1.44221	2.25725	38.4305
11.6566	1.44221	2.25725	38.2284
11.7576	1.44221	2.25725	38.0263
11.8586	1.44221	2.25725	37.8241
11.9596	1.44221	2.25725	37.622
12.0606	1.44221	2.25725	37.4198
12.1616	1.44221	2.25725	37.2175
12.2626	1.44221	2.25725	37.0152
12.3636	1.44221	2.25725	36.8128
12.4646	1.44221	2.25725	36.6103
12.5657	1.44221	2.25725	36.4077
12.6667	1.44221	2.25725	36.2049
12.7677	1.44221	2.25725	36.0019
12.8687	1.44221	2.25725	35.7987
12.9697	1.44221	2.25725	35.5951
13.0707	1.44221	2.25725	35.3912
13.1717	1.44221	2.25725	35.1867
13.2727	1.44221	2.25725	34.9816
13.3737	1.44221	2.25725	34.7757
13.4747	1.44221	2.25725	34.5688
13.5758	1.44221	2.25725	34.3606
13.6768	1.44221	2.25725	34.1508
13.7778	1.44221	2.25725	33.9389
13.8788	1.44221	2.25725	33.7245
13.9798	1.44221	2.25725	33.5068
14.0808	1.44221	2.25725	33.285
14.1818	1.44221	2.25725	33.0581
14.2828	1.44221	2.25725	32.8246
14.3838	1.44221	2.25725	32.5828
14.4848	1.44221	2.25725	32.3307
14.5859	1.44221	2.25725	32.0654
14.6869	1.44221	2.25725	31.7836
14.7879	1.44221	2.25725	31.4809
14.8889	1.44221	2.25725	31.1518
14.9899	1.44221	2.25725	30.7894
15.0909	1.44221	2.25725	30.3851
15.1919	1.44221	2.25725	29.9277
15.2929	1.44221	2.25725	29.4035
15.3939	1.44221	2.25725	28.795
15.4949	1.44221	2.25725	28.08
15.596	1.44221	2.25725	27.2306
15.697	1.44221	2.25725	26.2118
15.798	1.44221	2.25725	24.979
15.899	1.44221	2.25725	23.4764
16	1.44221	2.25725	21.6332
6	1.45647	2.30787	47.3259
6.10101	1.45647	2.30787	47.5745
6.20202	1.45647	2.30787	47.7295
6.30303	1.45647	2.30787	47.8105
6.40404	1.45647	2.30787	47.8328
6.50505	1.45647	2.30787	47.8085
6.60606	1.45647	2.30787	47.7473
6.70707	1.45647	2.30787	47.6569
6.80808	1.45647	2.30787	47.5434
6.90909	1.45647	2.30787	47.4114
7.0101	1.45647	2.30787	47.265
7.11111	1.45647	2.30787	47.107
7.21212	1.45647	2.30787	46.9398
7.31313	1.45647	2.30787	46.7655
7.41414	1.45647	2.30787	46.5854
7.51515	1.45647	2.30787	46.4007
7.61616	1.45647	2.30787	46.2125
7.71717	1.45647	2.30787	46.0213
7.81818	1.45647	2.30787	45.828
7.91919	1.45647	2.30787	45.6328
8.0202	1.45647	2.30787	45.4362
8.12121	1.45647	2.30787	45.2385
8.22222	1.45647	2.30787	45.0399
8.32323	1.45647	2.30787	44.8405
8.42424	1.45647	2.30787	44.6407
8.52525	1.45647	2.30787	44.4403
8.62626	1.45647	2.30787	44.2397
8.72727	1.45647	2.30787	44.0387
8.82828	1.45647	2.30787	43.8375
8.92929	1.45647	2.30787	43.6362
9.0303	1.45647	2.30787	43.4347
9.13131	1.45647	2.30787	43.2331
9.23232	1.45647	2.30787	43.0314
9.33333	1.45647	2.30787	42.8297
9.43434	1.45647	2.30787	42.6278
9.53535	1.45647	2.30787	42.426
9.63636	1.45647	2.30787	42.2241
9.73737	1.45647	2.30787	42.0222
9.83838	1.45647	2.30787	41.8202
9.93939	1.45647	2.30787	41.6183
10.0404	1.45647	2.30787	41.4163
10.1414	1.45647	2.30787	41.2143
10.2424	1.45647	2.30787	41.0123
10.3434	1.45647	2.30787	40.8103
10.4444	1.45647	2.30787	40.6083
10.5455	1.45647	2.30787	40.4063
10.6465	1.45647	2.30787	40.2043
10.7475	1.45647	2.30787	40.0023
10.8485	1.45647	2.30787	39.8003
10.9495	1.45647	2.30787	39.5982
11.0505	1.45647	2.30787	39.3962
11.1515	1.45647	2.30787	39.1942
11.2525	1.45647	2.30787	38.9921
11.3535	1.45647	2.30787	38.7901
11.4545	1.45647	2.30787	38.588
11.5556	1.45647	2.30787	38.3859
11.6566	1.45647	2.30787	38.1838
11.7576	1.45647	2.30787	37.9817
11.8586	1.45647	2.30787	37.7796
11.9596	1.45647	2.30787	37.5774
12.0606	1.45647	2.30787	37.3752
12.1616	1.45647	2.30787	37.1729
12.2626	1.45647	2.30787	36.9706
12.3636	1.45647	2.30787	36.7682
12.4646	1.45647	2.30787	36.5657
12.5657	1.45647	2.30787	36.3631
12.6667	1.45647	2.30787	36.1603
12.7677	1.45647	2.30787	35.9573
12.8687	1.45647	2.30787	35.7541
12.9697	1.45647	2.30787	35.5506
13.0707	1.45647	2.30787	35.3466
13.1717	1.45647	2.30787	35.1421
13.2727	1.45647	2.30787	34.9371
13.3737	1.45647	2.30787	34.7312
13.4747	1.45647	2.30787	34.5242
13.5758	1.45647	2.30787	34.316
13.6768	1.45647	2.30787	34.1062
13.7778	1.45647	2.30787	33.8944
13.8788	1.45647	2.30787	33.6799
13.9798	1.45647	2.30787	33.4622
14.0808	1.45647	2.30787	33.2404
14.1818	1.45647	2.30787	33.0135
14.2828	1.45647	2.30787	32.78
14.3838	1.45647	2.30787	32.5382
14.4848	1.45647	2.30787	32.2861
14.5859	1.45647	2.30787	32.0208
14.6869	1.45647	2.30787	31.739
14.7879	1.45647	2.30787	31.4363
14.8889	1.45647	2.30787	31.1072
14.9899	1.45647	2.30787	30.7448
15.0909	1.45647	2.30787	30.3405
15.1919	1.45647	2.30787	29.8831
15.2929	1.45647	2.30787	29.359
15.3939	1.45647	2.30787	28.7504
15.4949	1.45647	2.30787	28.0354
15.596	1.45647	2.30787	27.186
15.697	1.45647	2.30787	26.1672
15.798	1.45647	2.30787	24.9345
15.899	1.45647	2.30787	23.4318
16	1.45647	2.30787	21.5886
6	1.47073	2.35882	47.2802
6.10101	1.47073	2.35882	47.5288
6.20202	1.47073	2.35882	47.6839
6.30303	1.47073	2.35882	47.7649
6.40404	1.47073	2.35882	47.7871
6.50505	1.47073	2.35882	47.7628
6.60606	1.47073	2.35882	47.7017
6.70707	1.47073	2.35882	47.6113
6.80808	1.47073	2.35882	47.4977
6.90909	1.47073	2.35882	47.3658
7.0101	1.47073	2.35882	47.2193
7.11111	1.47073	2.35882	47.0613
7.21212	1.47073	2.35882	46.8942
7.31313	1.47073	2.35882	46.7198
7.41414	1.47073	2.35882	46.5397
7.51515	1.47073	2.35882	46.355
7.61616	1.47073	2.35882	46.1668
7.71717	1.47073	2.35882	45.9757
7.81818	1.47073	2.35882	45.7823
7.91919	1.47073	2.35882	45.5871
8.0202	1.47073	2.35882	45.3905
8.12121	1.47073	2.35882	45.1928
8.22222	1.47073	2.35882	44.9942
8.32323	1.47073	2.35882	44.7949
8.42424	1.47073	2.35882	44.595
8.52525	1.47073	2.35882	44.3947
8.62626	1.47073	2.35882	44.194
8.72727	1.47073	2.35882	43.993
8.82828	1.47073	2.35882	43.7919
8.92929	1.47073	2.35882	43.5905
9.0303	1.47073	2.35882	43.389
9.13131	1.47073	2.35882	43.1874
9.23232	1.47073	2.35882	42.9857
9.33333	1.47073	2.35882	42.784
9.43434	1.47073	2.35882	42.5822
9.53535	1.47073	2.35882	42.3803
9.63636	1.47073	2.35882	42.1784
9.73737	1.47073	2.35882	41.9765
9.83838	1.47073	2.35882	41.7746
9.93939	1.47073	2.35882	41.5726
10.0404	1.47073	2.35882	41.3706
10.1414	1.47073	2.35882	41.1687
10.2424	1.47073	2.35882	40.9667
10.3434	1.47073	2.35882	40.7647
10.4444	1.47073	2.35882	40.5627
10.5455	1.47073	2.35882	40.3607
10.6465	1.47073	2.35882	40.1586
10.7475	1.47073	2.35882	39.9566
10.8485	1.47073	2.35882	39.7546
10.9495	1.47073	2.35882	39.5526
11.0505	1.47073	2.35882	39.3505
11.1515	1.47073	2.35882	39.1485
11.2525	1.47073	2.35882	38.9465
11.3535	1.47073	2.35882	38.7444
11.4545	1.47073	2.35882	38.5423
11.5556	1.47073	2.35882	38.3403
11.6566	1.47073	2.35882	38.1382
11.7576	1.47073	2.35882	37.9361
11.8586	1.47073	2.35882	37.7339
11.9596	1.47073	2.35882	37.5317
12.0606	1.47073	2.35882	37.3295
12.1616	1.47073	2.35882	37.1273
12.2626	1.47073	2.35882	36.925
12.3636	1.47073	2.35882	36.7226
12.4646	1.47073	2.35882	36.5201
12.5657	1.47073	2.35882	36.3174
12.6667	1.47073	2.35882	36.1147
12.7677	1.47073	2.35882	35.9117
12.8687	1.47073	2.35882	35.7084
12.9697	1.47073	2.35882	35.5049
13.0707	1.47073	2.35882	35.3009
13.1717	1.47073	2.35882	35.0965
13.2727	1.47073	2.35882	34.8914
13.3737	1.47073	2.35882	34.6855
13.4747	1.47073	2.35882	34.4786
13.5758	1.47073	2.35882	34.2704
13.6768	1.47073	2.35882	34.0606
13.7778	1.47073	2.35882	33.8487
13.8788	1.47073	2.35882	33.6343
13.9798	1.47073	2.35882	33.4166
14.0808	1.47073	2.35882	33.1948
14.1818	1.47073	2.35882	32.9678
14.2828	1.47073	2.35882	32.7343
14.3838	1.47073	2.35882	32.4926
14.4848	1.47073	2.35882	32.2404
14.5859	1.47073	2.35882	31.9752
14.6869	1.47073	2.35882	31.6934
14.7879	1.47073	2.35882	31.3906
14.8889	1.47073	2.35882	31.0615
14.9899	1.47073	2.35882	30.6992
15.0909	1.47073	2.35882	30.2948
15.1919	1.47073	2.35882	29.8375
15.2929	1.47073	2.35882	29.3133
15.3939	1.47073	2.35882	28.7047
15.4949	1.47073	2.35882	27.9897
15.596	1.47073	2.35882	27.1404
15.697	1.47073	2.35882	26.1215
15.798	1.47073	2.35882	24.8888
15.899	1.47073	2.35882	23.3862
16	1.47073	2.35882	21.5429
6	1.485	2.41569	47.2379
6.10101	1.485	2.41569	47.4865
6.20202	1.485	2.41569	47.6415
6.30303	1.485	2.41569	47.7225
6.40404	1.485	2.41569	47.7448
6.50505	1.485	2.41569	47.7205
6.60606	1.485	2.41569	47.6593
6.70707	1.485	2.41569	47.5689
6.80808	1.485	2.41569	47.4554
6.90909	1.485	2.41569	47.3234
7.0101	1.485	2.41569	47.177
7.11111	1.485	2.41569	47.019
7.21212	1.485	2.41569	46.8519
7.31313	1.485	2.41569	46.6775
7.41414	1.485	2.41569	46.4974
7.51515	1.485	2.41569	46.3127
7.61616	1.485	2.41569	46.1245
7.71717	1.485	2.41569	45.9333
7.81818	1.485	2.41569	45.74
7.91919	1.485	2.41569	45.5448
8.0202	1.485	2.41569	45.3482
8.12121	1.485	2.41569	45.1505
8.22222	1.485	2.41569	44.9519
8.32323	1.485	2.41569	44.7526
8.42424	1.485	2.41569	44.5527
8.52525	1.485	2.41569	44.3524
8.62626	1.485	2.41569	44.1517
8.72727	1.485	2.41569	43.9507
8.82828	1.485	2.41569	43.7495
8.92929	1.485	2.41569	43.5482
9.0303	1.485	2.41569	43.3467
9.13131	1.485	2.41569	43.1451
9.23232	1.485	2.41569	42.9434
9.33333	1.485	2.41569	42.7417
9.43434	1.485	2.41569	42.5398
9.53535	1.485	2.41569	42.338
9.63636	1.485	2.41569	42.1361
9.73737	1.485	2.41569	41.9342
9.83838	1.485	2.41569	41.7322
9.93939	1.485	2.41569	41.5303
10.0404	1.485	2.41569	41.3283
10.1414	1.485	2.41569	41.1263
10.2424	1.485	2.41569	40.9243
10.3434	1.485	2.41569	40.7224
10.4444	1.485	2.41569	40.5203
10.5455	1.485	2.41569	40.3183
10.6465	1.485	2.41569	40.1163
10.7475	1.485	2.41569	39.9143
10.8485	1.485	2.41569	39.7123
10.9495	1.485	2.41569	39.5103
11.0505	1.485	2.41569	39.3082
11.1515	1.485	2.41569	39.1062
11.2525	1.485	2.41569	38.9041
11.3535	1.485	2.41569	38.7021
11.4545	1.485	2.41569	38.5
11.5556	1.485	2.41569	38.2979
11.6566	1.485	2.41569	38.0958
11.7576	1.485	2.41569	37.8937
11.8586	1.485	2.41569	37.6916
11.9596	1.485	2.41569	37.4894
12.0606	1.485	2.41569	37.2872
12.1616	1.485	2.41569	37.085
12.2626	1.485	2.41569	36.8826
12.3636	1.485	2.41569	36.6802
12.4646	1.485	2.41569	36.4777
12.5657	1.485	2.41569	36.2751
12.6667	1.485	2.41569	36.0723
12.7677	1.485	2.41569	35.8694
12.8687	1.485	2.41569	35.6661
12.9697	1.485	2.41569	35.4626
13.0707	1.485	2.41569	35.2586
13.1717	1.485	2.41569	35.0542
13.2727	1.485	2.41569	34.8491
13.3737	1.485	2.41569	34.6432
13.4747	1.485	2.41569	34.4362
13.5758	1.485	2.41569	34.228
13.6768	1.485	2.41569	34.0182
13.7778	1.485	2.41569	33.8064
13.8788	1.485	2.41569	33.5919
13.9798	1.485	2.41569	33.3742
14.0808	1.485	2.41569	33.1525
14.1818	1.485	2.41569	32.9255
14.2828	1.485	2.41569	32.692
14.3838	1.485	2.41569	32.4503
14.4848	1.485	2.41569	32.1981
14.5859	1.485	2.41569	31.9329
14.6869	1.485	2.41569	31.651
14.7879	1.485	2.41569	31.3483
14.8889	1.485	2.41569	31.0192
14.9899	1.485	2.41569	30.6568
15.0909	1.485	2.41569	30.2525
15.1919	1.485	2.41569	29.7952
15.2929	1.485	2.41569	29.271
15.3939	1.485	2.41569	28.6624
15.4949	1.485	2.41569	27.9474
15.596	1.485	2.41569	27.0981
15.697	1.485	2.41569	26.0792
15.798	1.485	2.41569	24.8465
15.899	1.485	2.41569	23.3438
16	1.485	2.41569	21.5006
6	1.49926	2.46752	47.1897
6.10101	1.49926	2.46752	47.4383
6.20202	1.49926	2.46752	47.5934
6.30303	1.49926	2.46752	47.6744
6.40404	1.49926	2.46752	47.6966
6.50505	1.49926	2.46752	47.6723
6.60606	1.49926	2.46752	47.6112
6.70707	1.49926	2.46752	47.5208
6.80808	1.49926	2.46752	47.4072
6.90909	1.49926	2.46752	47.2753
7.0101	1.49926	2.46752	47.1288
7.11111	1.49926	2.46752	46.9708
7.21212	1.49926	2.46752	46.8037
7.31313	1.49926	2.46752	46.6293
7.41414	1.49926	2.46752	46.4492
7.51515	1.49926	2.46752	46.2646
7.61616	1.49926	2.46752	46.0763
7.71717	1.49926	2.46752	45.8852
7.81818	1.49926	2.46752	45.6918
7.91919	1.49926	2.46752	45.4966
8.0202	1.49926	2.46752	45.3
8.12121	1.49926	2.46752	45.1023
8.22222	1.49926	2.46752	44.9037
8.32323	1.49926	2.46752	44.7044
8.42424	1.49926	2.46752	44.5045
8.52525	1.49926	2.46752	44.3042
8.62626	1.49926	2.46752	44.1035
8.72727	1.49926	2.46752	43.9026
8.82828	1.49926	2.46752	43.7014
8.92929	1.49926	2.46752	43.5
9.0303	1.49926	2.46752	43.2985
9.13131	1.49926	2.46752	43.0969
9.23232	1.49926	2.46752	42.8953
9.33333	1.49926	2.46752	42.6935
9.43434	1.49926	2.46752	42.4917
9.53535	1.49926	2.46752	42.2898
9.63636	1.49926	2.46752	42.0879
9.73737	1.49926	2.46752	41.886
9.83838	1.49926	2.46752	41.6841
9.93939	1.49926	2.46752	41.4821
10.0404	1.49926	2.46752	41.2802
10.1414	1.49926	2.46752	41.0782
10.2424	1.49926	2.46752	40.8762
10.3434	1.49926	2.46752	40.6742
10.4444	1.49926	2.46752	40.4722
10.5455	1.49926	2.46752	40.2702
10.6465	1.49926	2.46752	40.0682
10.7475	1.49926	2.46752	39.8661
10.8485	1.49926	2.46752	39.6641
10.9495	1.49926	2.46752	39.4621
11.0505	1.49926	2.46752	39.2601
11.1515	1.49926	2.46752	39.058
11.2525	1.49926	2.46752	38.856
11.3535	1.49926	2.46752	38.6539
11.4545	1.49926	2.46752	38.4519
11.5556	1.49926	2.46752	38.2498
11.6566	1.49926	2.46752	38.0477
11.7576	1.49926	2.46752	37.8456
11.8586	1.49926	2.46752	37.6434
11.9596	1.49926	2.46752	37.4413
12.0606	1.49926	2.46752	37.2391
12.1616	1.49926	2.46752	37.0368
12.2626	1.49926	2.46752	36.8345
12.3636	1.49926	2.46752	36.6321
12.4646	1.49926	2.46752	36.4296
12.5657	1.49926	2.46752	36.227
12.6667	1.49926	2.46752	36.0242
12.7677	1.49926	2.46752	35.8212
12.8687	1.49926	2.46752	35.618
12.9697	1.49926	2.46752	35.4144
13.0707	1.49926	2.46752	35.2105
13.1717	1.49926	2.46752	35.006
13.2727	1.49926	2.46752	34.8009
13.3737	1.49926	2.46752	34.595
13.4747	1.49926	2.46752	34.3881
13.5758	1.49926	2.46752	34.1799
13.6768	1.49926	2.46752	33.9701
13.7778	1.49926	2.46752	33.7582
13.8788	1.49926	2.46752	33.5438
13.9798	1.49926	2.46752	33.3261
14.0808	1.49926	2.46752	33.1043
14.1818	1.49926	2.46752	32.8773
14.2828	1.49926	2.46752	32.6438
14.3838	1.49926	2.46752	32.4021
14.4848	1.49926	2.46752	32.15
14.5859	1.49926	2.46752	31.8847
14.6869	1.49926	2.46752	31.6029
14.7879	1.49926	2.46752	31.3001
14.8889	1.49926	2.46752	30.9711
14.9899	1.49926	2.46752	30.6087
15.0909	1.49926	2.46752	30.2043
15.1919	1.49926	2.46752	29.747
15.2929	1.49926	2.46752	29.2228
15.3939	1.49926	2.46752	28.6142
15.4949	1.49926	2.46752	27.8992
15.596	1.49926	2.46752	27.0499
15.697	1.49926	2.46752	26.031
15.798	1.49926	2.46752	24.7983
15.899	1.49926	2.46752	23.2957
16	1.49926	2.46752	21.4524
6	1.51353	2.52545	47.1448
6.10101	1.51353	2.52545	47.3933
6.20202	1.51353	2.52545	47.5484
6.30303	1.51353	2.52545	47.6294
6.40404	1.51353	2.52545	47.6517
6.50505	1.51353	2.52545	47.6274
6.60606	1.51353	2.52545	47.5662
6.70707	1.51353	2.52545	47.4758
6.80808	1.51353	2.52545	47.3623
6.90909	1.51353	2.52545	47.2303
7.0101	1.51353	2.52545	47.0839
7.11111	1.51353	2.52545	46.9259
7.21212	1.51353	2.52545	46.7587
7.31313	1.51353	2.52545	46.5844
7.41414	1.51353	2.52545	46.4043
7.51515	1.51353	2.52545	46.2196
7.61616	1.51353	2.52545	46.0313
7.71717	1.51353	2.52545	45.8402
7.81818	1.51353	2.52545	45.6469
7.91919	1.51353	2.52545	45.4517
8.0202	1.51353	2.52545	45.2551
8.12121	1.51353	2.52545	45.0574
8.22222	1.51353	2.52545	44.8588
8.32323	1.51353	2.52545	44.6594
8.42424	1.51353	2.52545	44.4596
8.52525	1.51353	2.52545	44.2592
8.62626	1.51353	2.52545	44.0586
8.72727	1.51353	2.52545	43.8576
8.82828	1.51353	2.52545	43.6564
8.92929	1.51353	2.52545	43.4551
9.0303	1.51353	2.52545	43.2536
9.13131	1.51353	2.52545	43.052
9.23232	1.51353	2.52545	42.8503
9.33333	1.51353	2.52545	42.6485
9.43434	1.51353	2.52545	42.4467
9.53535	1.51353	2.52545	42.2449
9.63636	1.51353	2.52545	42.043
9.73737	1.51353	2.52545	41.8411
9.83838	1.51353	2.52545	41.6391
9.93939	1.51353	2.52545	41.4372
10.0404	1.51353	2.52545	41.2352
10.1414	1.51353	2.52545	41.0332
10.2424	1.51353	2.52545	40.8312
10.3434	1.51353	2.52545	40.6292
10.4444	1.51353	2.52545	40.4272
10.5455	1.51353	2.52545	40.2252
10.6465	1.51353	2.52545	40.0232
10.7475	1.51353	2.52545	39.8212
10.8485	1.51353	2.52545	39.6192
10.9495	1.51353	2.52545	39.4171
11.0505	1.51353	2.52545	39.2151
11.1515	1.51353	2.52545	39.0131
11.2525	1.51353	2.52545	38.811
11.3535	1.51353	2.52545	38.609
11.4545	1.51353	2.52545	38.4069
11.5556	1.51353	2.52545	38.2048
11.6566	1.51353	2.52545	38.0027
11.7576	1.51353	2.52545	37.8006
11.8586	1.51353	2.52545	37.5985
11.9596	1.51353	2.52545	37.3963
12.0606	1.51353	2.52545	37.1941
12.1616	1.51353	2.52545	36.9918
12.2626	1.51353	2.52545	36.7895
12.3636	1.51353	2.52545	36.5871
12.4646	1.51353	2.52545	36.3846
12.5657	1.51353	2.52545	36.182
12.6667	1.51353	2.52545	35.9792
12.7677	1.51353	2.52545	35.7762
12.8687	1.51353	2.52545	35.573
12.9697	1.51353	2.52545	35.3695
13.0707	1.51353	2.52545	35.1655
13.1717	1.51353	2.52545	34.961
13.2727	1.51353	2.52545	34.756
13.3737	1.51353	2.52545	34.55
13.4747	1.51353	2.52545	34.3431
13.5758	1.51353	2.52545	34.1349
13.6768	1.51353	2.52545	33.9251
13.7778	1.51353	2.52545	33.7133
13.8788	1.51353	2.52545	33.4988
13.9798	1.51353	2.52545	33.2811
14.0808	1.51353	2.52545	33.0593
14.1818	1.51353	2.52545	32.8324
14.2828	1.51353	2.52545	32.5989
14.3838	1.51353	2.52545	32.3571
14.4848	1.51353	2.52545	32.105
14.5859	1.51353	2.52545	31.8397
14.6869	1.51353	2.52545	31.5579
14.7879	1.51353	2.52545	31.2552
14.8889	1.51353	2.52545	30.9261
14.9899	1.51353	2.52545	30.5637
15.0909	1.51353	2.52545	30.1594
15.1919	1.51353	2.52545	29.702
15.2929	1.51353	2.52545	29.1779
15.3939	1.51353	2.52545	28.5693
15.4949	1.51353	2.52545	27.8543
15.596	1.51353	2.52545	27.0049
15.697	1.51353	2.52545	25.9861
15.798	1.51353	2.52545	24.7534
15.899	1.51353	2.52545	23.2507
16	1.51353	2.52545	21.4075
6	1.52779	2.58403	47.0983
6.10101	1.52779	2.58403	47.3469
6.20202	1.52779	2.58403	47.502
6.30303	1.52779	2.58403	47.583
6.40404	1.52779	2.58403	47.6052
6.50505	1.52779	2.58403	47.5809
6.60606	1.52779	2.58403	47.5198
6.70707	1.52779	2.58403	47.4294
6.80808	1.52779	2.58403	47.3158
6.90909	1.52779	2.58403	47.1839
7.0101	1.52779	2.58403	47.0374
7.11111	1.52779	2.58403	46.8794
7.21212	1.52779	2.58403	46.7123
7.31313	1.52779	2.58403	46.5379
7.41414	1.52779	2.58403	46.3578
7.51515	1.52779	2.58403	46.1731
7.61616	1.52779	2.58403	45.9849
7.71717	1.52779	2.58403	45.7938
7.81818	1.52779	2.58403	45.6004
7.91919	1.52779	2.58403	45.4052
8.0202	1.52779	2.58403	45.2086
8.12121	1.52779	2.58403	45.0109
8.22222	1.52779	2.58403	44.8123
8.32323	1.52779	2.58403	44.613
8.42424	1.52779	2.58403	44.4131
8.52525	1.52779	2.58403	44.2128
8.62626	1.52779	2.58403	44.0121
8.72727	1.52779	2.58403	43.8112
8.82828	1.52779	2.58403	43.61
8.92929	1.52779	2.58403	43.4086
9.0303	1.52779	2.58403	43.2071
9.13131	1.52779	2.58403	43.0055
9.23232	1.52779	2.58403	42.8038
9.33333	1.52779	2.58403	42.6021
9.43434	1.52779	2.58403	42.4003
9.53535	1.52779	2.58403	42.1984
9.63636	1.52779	2.58403	41.9965
9.73737	1.52779	2.58403	41.7946
9.83838	1.52779	2.58403	41.5927
9.93939	1.52779	2.58403	41.3907
10.0404	1.52779	2.58403	41.1888
10.1414	1.52779	2.58403	40.9868
10.2424	1.52779	2.58403	40.7848
10.3434	1.52779	2.58403	40.5828
10.4444	1.52779	2.58403	40.3808
10.5455	1.52779	2.58403	40.1788
10.6465	1.52779	2.58403	39.9768
10.7475	1.52779	2.58403	39.7747
10.8485	1.52779	2.58403	39.5727
10.9495	1.52779	2.58403	39.3707
11.0505	1.52779	2.58403	39.1686
11.1515	1.52779	2.58403	38.9666
11.2525	1.52779	2.58403	38.7646
11.3535	1.52779	2.58403	38.5625
11.4545	1.52779	2.58403	38.3604
11.5556	1.52779	2.58403	38.1584
11.6566	1.52779	2.58403	37.9563
11.7576	1.52779	2.58403	37.7542
11.8586	1.52779	2.58403	37.552
11.9596	1.52779	2.58403	37.3499
12.0606	1.52779	2.58403	37.1476
12.1616	1.52779	2.58403	36.9454
12.2626	1.52779	2.58403	36.7431
12.3636	1.52779	2.58403	36.5407
12.4646	1.52779	2.58403	36.3382
12.5657	1.52779	2.58403	36.1355
12.6667	1.52779	2.58403	35.9328
12.7677	1.52779	2.58403	35.7298
12.8687	1.52779	2.58403	35.5265
12.9697	1.52779	2.58403	35.323
13.0707	1.52779	2.58403	35.119
13.1717	1.52779	2.58403	34.9146
13.2727	1.52779	2.58403	34.7095
13.3737	1.52779	2.58403	34.5036
13.4747	1.52779	2.58403	34.2967
13.5758	1.52779	2.58403	34.0885
13.6768	1.52779	2.58403	33.8787
13.7778	1.52779	2.58403	33.6668
13.8788	1.52779	2.58403	33.4524
13.9798	1.52779	2.58403	33.2347
14.0808	1.52779	2.58403	33.0129
14.1818	1.52779	2.58403	32.7859
14.2828	1.52779	2.58403	32.5524
14.3838	1.52779	2.58403	32.3107
14.4848	1.52779	2.58403	32.0585
14.5859	1.52779	2.58403	31.7933
14.6869	1.52779	2.58403	31.5115
14.7879	1.52779	2.58403	31.2087
14.8889	1.52779	2.58403	30.8796
14.9899	1.52779	2.58403	30.5173
15.0909	1.52779	2.58403	30.1129
15.1919	1.52779	2.58403	29.6556
15.2929	1.52779	2.58403	29.1314
15.3939	1.52779	2.58403	28.5228
15.4949	1.52779	2.58403	27.8078
15.596	1.52779	2.58403	26.9585
15.697	1.52779	2.58403	25.9396
15.798	1.52779	2.58403	24.7069
15.899	1.52779	2.58403	23.2043
16	1.52779	2.58403	21.361
6	1.54206	2.64333	47.0501
6.10101	1.54206	2.64333	47.2987
6.20202	1.54206	2.64333	47.4538
6.30303	1.54206	2.64333	47.5348
6.40404	1.54206	2.64333	47.557
6.50505	1.54206	2.64333	47.5328
6.60606	1.54206	2.64333	47.4716
6.70707	1.54206	2.64333	47.3812
6.80808	1.54206	2.64333	47.2676
6.90909	1.54206	2.64333	47.1357
7.0101	1.54206	2.64333	46.9892
7.11111	1.54206	2.64333	46.8313
7.21212	1.54206	2.64333	46.6641
7.31313	1.54206	2.64333	46.4897
7.41414	1.54206	2.64333	46.3096
7.51515	1.54206	2.64333	46.125
7.61616	1.54206	2.64333	45.9367
7.71717	1.54206	2.64333	45.7456
7.81818	1.54206	2.64333	45.5522
7.91919	1.54206	2.64333	45.3571
8.0202	1.54206	2.64333	45.1605
8.12121	1.54206	2.64333	44.9628
8.22222	1.54206	2.64333	44.7641
8.32323	1.54206	2.64333	44.5648
8.42424	1.54206	2.64333	44.3649
8.52525	1.54206	2.64333	44.1646
8.62626	1.54206	2.64333	43.9639
8.72727	1.54206	2.64333	43.763
8.82828	1.54206	2.64333	43.5618
8.92929	1.54206	2.64333	43.3605
9.0303	1.54206	2.64333	43.159
9.13131	1.54206	2.64333	42.9574
9.23232	1.54206	2.64333	42.7557
9.33333	1.54206	2.64333	42.5539
9.43434	1.54206	2.64333	42.3521
9.53535	1.54206	2.64333	42.1503
9.63636	1.54206	2.64333	41.9484
9.73737	1.54206	2.64333	41.7465
9.83838	1.54206	2.64333	41.5445
9.93939	1.54206	2.64333	41.3426
10.0404	1.54206	2.64333	41.1406
10.1414	1.54206	2.64333	40.9386
10.2424	1.54206	2.64333	40.7366
10.3434	1.54206	2.64333	40.5346
10.4444	1.54206	2.64333	40.3326
10.5455	1.54206	2.64333	40.1306
10.6465	1.54206	2.64333	39.9286
10.7475	1.54206	2.64333	39.7266
10.8485	1.54206	2.64333	39.5245
10.9495	1.54206	2.64333	39.3225
11.0505	1.54206	2.64333	39.1205
11.1515	1.54206	2.64333	38.9184
11.2525	1.54206	2.64333	38.7164
11.3535	1.54206	2.64333	38.5143
11.4545	1.54206	2.64333	38.3123
11.5556	1.54206	2.64333	38.1102
11.6566	1.54206	2.64333	37.9081
11.7576	1.54206	2.64333	37.706
11.8586	1.54206	2.64333	37.5039
11.9596	1.54206	2.64333	37.3017
12.0606	1.54206	2.64333	37.0995
12.1616	1.54206	2.64333	36.8972
12.2626	1.54206	2.64333	36.6949
12.3636	1.54206	2.64333	36.4925
12.4646	1.54206	2.64333	36.29
12.5657	1.54206	2.64333	36.0874
12.6667	1.54206	2.64333	35.8846
12.7677	1.54206	2.64333	35.6816
12.8687	1.54206	2.64333	35.4784
12.9697	1.54206	2.64333	35.2748
13.0707	1.54206	2.64333	35.0709
13.1717	1.54206	2.64333	34.8664
13.2727	1.54206	2.64333	34.6613
13.3737	1.54206	2.64333	34.4554
13.4747	1.54206	2.64333	34.2485
13.5758	1.54206	2.64333	34.0403
13.6768	1.54206	2.64333	33.8305
13.7778	1.54206	2.64333	33.6186
13.8788	1.54206	2.64333	33.4042
13.9798	1.54206	2.64333	33.1865
14.0808	1.54206	2.64333	32.9647
14.1818	1.54206	2.64333	32.7378
14.2828	1.54206	2.64333	32.5043
14.3838	1.54206	2.64333	32.2625
14.4848	1.54206	2.64333	32.0104
14.5859	1.54206	2.64333	31.7451
14.6869	1.54206	2.64333	31.4633
14.7879	1.54206	2.64333	31.1606
14.8889	1.54206	2.64333	30.8315
14.9899	1.54206	2.64333	30.4691
15.0909	1.54206	2.64333	30.0648
15.1919	1.54206	2.64333	29.6074
15.2929	1.54206	2.64333	29.0832
15.3939	1.54206	2.64333	28.4747
15.4949	1.54206	2.64333	27.7597
15.596	1.54206	2.64333	26.9103
15.697	1.54206	2.64333	25.8915
15.798	1.54206	2.64333	24.6587
15.899	1.54206	2.64333	23.1561
16	1.54206	2.64333	21.3129
6	1.55632	2.70908	47.0052
6.10101	1.55632	2.70908	47.2538
6.20202	1.55632	2.70908	47.4088
6.30303	1.55632	2.70908	47.4898
6.40404	1.55632	2.70908	47.5121
6.50505	1.55632	2.70908	47.4878
6.60606	1.55632	2.70908	47.4266
6.70707	1.55632	2.70908	47.3362
6.80808	1.55632	2.70908	47.2227
6.90909	1.55632	2.70908	47.0907
7.0101	1.55632	2.70908	46.9443
7.11111	1.55632	2.70908	46.7863
7.21212	1.55632	2.70908	46.6192
7.31313	1.55632	2.70908	46.4448
7.41414	1.55632	2.70908	46.2647
7.51515	1.55632	2.70908	46.08
7.61616	1.55632	2.70908	45.8918
7.71717	1.55632	2.70908	45.7006
7.81818	1.55632	2.70908	45.5073
7.91919	1.55632	2.70908	45.3121
8.0202	1.55632	2.70908	45.1155
8.12121	1.55632	2.70908	44.9178
8.22222	1.55632	2.70908	44.7192
8.32323	1.55632	2.70908	44.5199
8.42424	1.55632	2.70908	44.32
8.52525	1.55632	2.70908	44.1197
8.62626	1.55632	2.70908	43.919
8.72727	1.55632	2.70908	43.718
8.82828	1.55632	2.70908	43.5168
8.92929	1.55632	2.70908	43.3155
9.0303	1.55632	2.70908	43.114
9.13131	1.55632	2.70908	42.9124
9.23232	1.55632	2.70908	42.7107
9.33333	1.55632	2.70908	42.509
9.43434	1.55632	2.70908	42.3071
9.53535	1.55632	2.70908	42.1053
9.63636	1.55632	2.70908	41.9034
9.73737	1.55632	2.70908	41.7015
9.83838	1.55632	2.70908	41.4995
9.93939	1.55632	2.70908	41.2976
10.0404	1.55632	2.70908	41.0956
10.1414	1.55632	2.70908	40.8936
10.2424	1.55632	2.70908	40.6916
10.3434	1.55632	2.70908	40.4897
10.4444	1.55632	2.70908	40.2876
10.5455	1.55632	2.70908	40.0856
10.6465	1.55632	2.70908	39.8836
10.7475	1.55632	2.70908	39.6816
10.8485	1.55632	2.70908	39.4796
10.9495	1.55632	2.70908	39.2776
11.0505	1.55632	2.70908	39.0755
11.1515	1.55632	2.70908	38.8735
11.2525	1.55632	2.70908	38.6714
11.3535	1.55632	2.70908	38.4694
11.4545	1.55632	2.70908	38.2673
11.5556	1.55632	2.70908	38.0652
11.6566	1.55632	2.70908	37.8631
11.7576	1.55632	2.70908	37.661
11.8586	1.55632	2.70908	37.4589
11.9596	1.55632	2.70908	37.2567
12.0606	1.55632	2.70908	37.0545
12.1616	1.55632	2.70908	36.8523
12.2626	1.55632	2.70908	36.6499
12.3636	1.55632	2.70908	36.4475
12.4646	1.55632	2.70908	36.245
12.5657	1.55632	2.70908	36.0424
12.6667	1.55632	2.70908	35.8396
12.7677	1.55632	2.70908	35.6367
12.8687	1.55632	2.70908	35.4334
12.9697	1.55632	2.70908	35.2299
13.0707	1.55632	2.70908	35.0259
13.1717	1.55632	2.70908	34.8215
13.2727	1.55632	2.70908	34.6164
13.3737	1.55632	2.70908	34.4105
13.4747	1.55632	2.70908	34.2035
13.5758	1.55632	2.70908	33.9953
13.6768	1.55632	2.70908	33.7855
13.7778	1.55632	2.70908	33.5737
13.8788	1.55632	2.70908	33.3592
13.9798	1.55632	2.70908	33.1415
14.0808	1.55632	2.70908	32.9198
14.1818	1.55632	2.70908	32.6928
14.2828	1.55632	2.70908	32.4593
14.3838	1.55632	2.70908	32.2176
14.4848	1.55632	2.70908	31.9654
14.5859	1.55632	2.70908	31.7002
14.6869	1.55632	2.70908	31.4183
14.7879	1.55632	2.70908	31.1156
14.8889	1.55632	2.70908	30.7865
14.9899	1.55632	2.70908	30.4241
15.0909	1.55632	2.70908	30.0198
15.1919	1.55632	2.70908	29.5625
15.2929	1.55632	2.70908	29.0383
15.3939	1.55632	2.70908	28.4297
15.4949	1.55632	2.70908	27.7147
15.596	1.55632	2.70908	26.8654
15.697	1.55632	2.70908	25.8465
15.798	1.55632	2.70908	24.6138
15.899	1.55632	2.70908	23.1111
16	1.55632	2.70908	21.2679
6	1.57059	2.77	46.953
6.10101	1.57059	2.77	47.2016
6.20202	1.57059	2.77	47.3567
6.30303	1.57059	2.77	47.4377
6.40404	1.57059	2.77	47.4599
6.50505	1.57059	2.77	47.4356
6.60606	1.57059	2.77	47.3745
6.70707	1.57059	2.77	47.2841
6.80808	1.57059	2.77	47.1705
6.90909	1.57059	2.77	47.0386
7.0101	1.57059	2.77	46.8921
7.11111	1.57059	2.77	46.7341
7.21212	1.57059	2.77	46.567
7.31313	1.57059	2.77	46.3926
7.41414	1.57059	2.77	46.2125
7.51515	1.57059	2.77	46.0278
7.61616	1.57059	2.77	45.8396
7.71717	1.57059	2.77	45.6485
7.81818	1.57059	2.77	45.4551
7.91919	1.57059	2.77	45.2599
8.0202	1.57059	2.77	45.0633
8.12121	1.57059	2.77	44.8656
8.22222	1.57059	2.77	44.667
8.32323	1.57059	2.77	44.4677
8.42424	1.57059	2.77	44.2678
8.52525	1.57059	2.77	44.0675
8.62626	1.57059	2.77	43.8668
8.72727	1.57059	2.77	43.6658
8.82828	1.57059	2.77	43.4647
8.92929	1.57059	2.77	43.2633
9.0303	1.57059	2.77	43.0618
9.13131	1.57059	2.77	42.8602
9.23232	1.57059	2.77	42.6585
9.33333	1.57059	2.77	42.4568
9.43434	1.57059	2.77	42.255
9.53535	1.57059	2.77	42.0531
9.63636	1.57059	2.77	41.8512
9.73737	1.57059	2.77	41.6493
9.83838	1.57059	2.77	41.4474
9.93939	1.57059	2.77	41.2454
10.0404	1.57059	2.77	41.0434
10.1414	1.57059	2.77	40.8415
10.2424	1.57059	2.77	40.6395
10.3434	1.57059	2.77	40.4375
10.4444	1.57059	2.77	40.2355
10.5455	1.57059	2.77	40.0335
10.6465	1.57059	2.77	39.8315
10.7475	1.57059	2.77	39.6294
10.8485	1.57059	2.77	39.4274
10.9495	1.57059	2.77	39.2254
11.0505	1.57059	2.77	39.0233
11.1515	1.57059	2.77	38.8213
11.2525	1.57059	2.77	38.6193
11.3535	1.57059	2.77	38.4172
11.4545	1.57059	2.77	38.2151
11.5556	1.57059	2.77	38.0131
11.6566	1.57059	2.77	37.811
11.7576	1.57059	2.77	37.6089
11.8586	1.57059	2.77	37.4067
11.9596	1.57059	2.77	37.2045
12.0606	1.57059	2.77	37.0023
12.1616	1.57059	2.77	36.8001
12.2626	1.57059	2.77	36.5978
12.3636	1.57059	2.77	36.3954
12.4646	1.57059	2.77	36.1929
12.5657	1.57059	2.77	35.9902
12.6667	1.57059	2.77	35.7875
12.7677	1.57059	2.77	35.5845
12.8687	1.57059	2.77	35.3812
12.9697	1.57059	2.77	35.1777
13.0707	1.57059	2.77	34.9737
13.1717	1.57059	2.77	34.7693
13.2727	1.57059	2.77	34.5642
13.3737	1.57059	2.77	34.3583
13.4747	1.57059	2.77	34.1514
13.5758	1.57059	2.77	33.9432
13.6768	1.57059	2.77	33.7334
13.7778	1.57059	2.77	33.5215
13.8788	1.57059	2.77	33.3071
13.9798	1.57059	2.77	33.0894
14.0808	1.57059	2.77	32.8676
14.1818	1.57059	2.77	32.6406
14.2828	1.57059	2.77	32.4071
14.3838	1.57059	2.77	32.1654
14.4848	1.57059	2.77	31.9132
14.5859	1.57059	2.77	31.648
14.6869	1.57059	2.77	31.3662
14.7879	1.57059	2.77	31.0634
14.8889	1.57059	2.77	30.7343
14.9899	1.57059	2.77	30.372
15.0909	1.57059	2.77	29.9676
15.1919	1.57059	2.77	29.5103
15.2929	1.57059	2.77	28.9861
15.3939	1.57059	2.77	28.3775
15.4949	1.57059	2.77	27.6625
15.596	1.57059	2.77	26.8132
15.697	1.57059	2.77	25.7943
15.798	1.57059	2.77	24.5616
15.899	1.57059	2.77	23.059
16	1.57059	2.77	21.2157
6	1.58485	2.83758	46.9038
6.10101	1.58485	2.83758	47.1524
6.20202	1.58485	2.83758	47.3075
6.30303	1.58485	2.83758	47.3884
6.40404	1.58485	2.83758	47.4107
6.50505	1.58485	2.83758	47.3864
6.60606	1.58485	2.83758	47.3252
6.70707	1.58485	2.83758	47.2348
6.80808	1.58485	2.83758	47.1213
6.90909	1.58485	2.83758	46.9894
7.0101	1.58485	2.83758	46.8429
7.11111	1.58485	2.83758	46.6849
7.21212	1.58485	2.83758	46.5178
7.31313	1.58485	2.83758	46.3434
7.41414	1.58485	2.83758	46.1633
7.51515	1.58485	2.83758	45.9786
7.61616	1.58485	2.83758	45.7904
7.71717	1.58485	2.83758	45.5993
7.81818	1.58485	2.83758	45.4059
7.91919	1.58485	2.83758	45.2107
8.0202	1.58485	2.83758	45.0141
8.12121	1.58485	2.83758	44.8164
8.22222	1.58485	2.83758	44.6178
8.32323	1.58485	2.83758	44.4185
8.42424	1.58485	2.83758	44.2186
8.52525	1.58485	2.83758	44.0183
8.62626	1.58485	2.83758	43.8176
8.72727	1.58485	2.83758	43.6166
8.82828	1.58485	2.83758	43.4155
8.92929	1.58485	2.83758	43.2141
9.0303	1.58485	2.83758	43.0126
9.13131	1.58485	2.83758	42.811
9.23232	1.58485	2.83758	42.6093
9.33333	1.58485	2.83758	42.4076
9.43434	1.58485	2.83758	42.2058
9.53535	1.58485	2.83758	42.0039
9.63636	1.58485	2.83758	41.802
9.73737	1.58485	2.83758	41.6001
9.83838	1.58485	2.83758	41.3982
9.93939	1.58485	2.83758	41.1962
10.0404	1.58485	2.83758	40.9942
10.1414	1.58485	2.83758	40.7923
10.2424	1.58485	2.83758	40.5903
10.3434	1.58485	2.83758	40.3883
10.4444	1.58485	2.83758	40.1863
10.5455	1.58485	2.83758	39.9843
10.6465	1.58485	2.83758	39.7822
10.7475	1.58485	2.83758	39.5802
10.8485	1.58485	2.83758	39.3782
10.9495	1.58485	2.83758	39.1762
11.0505	1.58485	2.83758	38.9741
11.1515	1.58485	2.83758	38.7721
11.2525	1.58485	2.83758	38.57
11.3535	1.58485	2.83758	38.368
11.4545	1.58485	2.83758	38.1659
11.5556	1.58485	2.83758	37.9639
11.6566	1.58485	2.83758	37.7618
11.7576	1.58485	2.83758	37.5596
11.8586	1.58485	2.83758	37.3575
11.9596	1.58485	2.83758	37.1553
12.0606	1.58485	2.83758	36.9531
12.1616	1.58485	2.83758	36.7509
12.2626	1.58485	2.83758	36.5486
12.3636	1.58485	2.83758	36.3462
12.4646	1.58485	2.83758	36.1437
12.5657	1.58485	2.83758	35.941
12.6667	1.58485	2.83758	35.7382
12.7677	1.58485	2.83758	35.5353
12.8687	1.58485	2.83758	35.332
12.9697	1.58485	2.83758	35.1285
13.0707	1.58485	2.83758	34.9245
13.1717	1.58485	2.83758	34.7201
13.2727	1.58485	2.83758	34.515
13.3737	1.58485	2.83758	34.3091
13.4747	1.58485	2.83758	34.1022
13.5758	1.58485	2.83758	33.894
13.6768	1.58485	2.83758	33.6841
13.7778	1.58485	2.83758	33.4723
13.8788	1.58485	2.83758	33.2579
13.9798	1.58485	2.83758	33.0402
14.0808	1.58485	2.83758	32.8184
14.1818	1.58485	2.83758	32.5914
14.2828	1.58485	2.83758	32.3579
14.3838	1.58485	2.83758	32.1162
14.4848	1.58485	2.83758	31.864
14.5859	1.58485	2.83758	31.5988
14.6869	1.58485	2.83758	31.3169
14.7879	1.58485	2.83758	31.0142
14.8889	1.58485	2.83758	30.6851
14.9899	1.58485	2.83758	30.3228
15.0909	1.58485	2.83758	29.9184
15.1919	1.58485	2.83758	29.4611
15.2929	1.58485	2.83758	28.9369
15.3939	1.58485	2.83758	28.3283
15.4949	1.58485	2.83758	27.6133
15.596	1.58485	2.83758	26.764
15.697	1.58485	2.83758	25.7451
15.798	1.58485	2.83758	24.5124
15.899	1.58485	2.83758	23.0097
16	1.58485	2.83758	21.1665
6	1.59912	2.9062	46.852
6.10101	1.59912	2.9062	47.1006
6.20202	1.59912	2.9062	47.2557
6.30303	1.59912	2.9062	47.3367
6.40404	1.59912	2.9062	47.359
6.50505	1.59912	2.9062	47.3347
6.60606	1.59912	2.9062	47.2735
6.70707	1.59912	2.9062	47.1831
6.80808	1.59912	2.9062	47.0695
6.90909	1.59912	2.9062	46.9376
7.0101	1.59912	2.9062	46.7912
7.11111	1.59912	2.9062	46.6332
7.21212	1.59912	2.9062	46.466
7.31313	1.59912	2.9062	46.2917
7.41414	1.59912	2.9062	46.1115
7.51515	1.59912	2.9062	45.9269
7.61616	1.59912	2.9062	45.7386
7.71717	1.59912	2.9062	45.5475
7.81818	1.59912	2.9062	45.3541
7.91919	1.59912	2.9062	45.159
8.0202	1.59912	2.9062	44.9624
8.12121	1.59912	2.9062	44.7647
8.22222	1.59912	2.9062	44.566
8.32323	1.59912	2.9062	44.3667
8.42424	1.59912	2.9062	44.1668
8.52525	1.59912	2.9062	43.9665
8.62626	1.59912	2.9062	43.7658
8.72727	1.59912	2.9062	43.5649
8.82828	1.59912	2.9062	43.3637
8.92929	1.59912	2.9062	43.1624
9.0303	1.59912	2.9062	42.9609
9.13131	1.59912	2.9062	42.7593
9.23232	1.59912	2.9062	42.5576
9.33333	1.59912	2.9062	42.3558
9.43434	1.59912	2.9062	42.154
9.53535	1.59912	2.9062	41.9522
9.63636	1.59912	2.9062	41.7503
9.73737	1.59912	2.9062	41.5484
9.83838	1.59912	2.9062	41.3464
9.93939	1.59912	2.9062	41.1445
10.0404	1.59912	2.9062	40.9425
10.1414	1.59912	2.9062	40.7405
10.2424	1.59912	2.9062	40.5385
10.3434	1.59912	2.9062	40.3365
10.4444	1.59912	2.9062	40.1345
10.5455	1.59912	2.9062	39.9325
10.6465	1.59912	2.9062	39.7305
10.7475	1.59912	2.9062	39.5285
10.8485	1.59912	2.9062	39.3265
10.9495	1.59912	2.9062	39.1244
11.0505	1.59912	2.9062	38.9224
11.1515	1.59912	2.9062	38.7204
11.2525	1.59912	2.9062	38.5183
11.3535	1.59912	2.9062	38.3163
11.4545	1.59912	2.9062	38.1142
11.5556	1.59912	2.9062	37.9121
11.6566	1.59912	2.9062	37.71
11.7576	1.59912	2.9062	37.5079
11.8586	1.59912	2.9062	37.3058
11.9596	1.59912	2.9062	37.1036
12.0606	1.59912	2.9062	36.9014
12.1616	1.59912	2.9062	36.6991
12.2626	1.59912	2.9062	36.4968
12.3636	1.59912	2.9062	36.2944
12.4646	1.59912	2.9062	36.0919
12.5657	1.59912	2.9062	35.8893
12.6667	1.59912	2.9062	35.6865
12.7677	1.59912	2.9062	35.4835
12.8687	1.59912	2.9062	35.2803
12.9697	1.59912	2.9062	35.0767
13.0707	1.59912	2.9062	34.8728
13.1717	1.59912	2.9062	34.6683
13.2727	1.59912	2.9062	34.4632
13.3737	1.59912	2.9062	34.2573
13.4747	1.59912	2.9062	34.0504
13.5758	1.59912	2.9062	33.8422
13.6768	1.59912	2.9062	33.6324
13.7778	1.59912	2.9062	33.4205
13.8788	1.59912	2.9062	33.2061
13.9798	1.59912	2.9062	32.9884
14.0808	1.59912	2.9062	32.7666
14.1818	1.59912	2.9062	32.5397
14.2828	1.59912	2.9062	32.3062
14.3838	1.59912	2.9062	32.0644
14.4848	1.59912	2.9062	31.8123
14.5859	1.59912	2.9062	31.547
14.6869	1.59912	2.9062	31.2652
14.7879	1.59912	2.9062	30.9625
14.8889	1.59912	2.9062	30.6334
14.9899	1.59912	2.9062	30.271
15.0909	1.59912	2.9062	29.8667
15.1919	1.59912	2.9062	29.4093
15.2929	1.59912	2.9062	28.8851
15.3939	1.59912	2.9062	28.2766
15.4949	1.59912	2.9062	27.5616
15.596	1.59912	2.9062	26.7122
15.697	1.59912	2.9062	25.6934
15.798	1.59912	2.9062	24.4606
15.899	1.59912	2.9062	22.958
16	1.59912	2.9062	21.1148
6	1.61338	2.98181	46.8034
6.10101	1.61338	2.98181	47.052
6.20202	1.61338	2.98181	47.2071
6.30303	1.61338	2.98181	47.2881
6.40404	1.61338	2.98181	47.3103
6.50505	1.61338	2.98181	47.286
6.60606	1.61338	2.98181	47.2249
6.70707	1.61338	2.98181	47.1345
6.80808	1.61338	2.98181	47.0209
6.90909	1.61338	2.98181	46.889
7.0101	1.61338	2.98181	46.7425
7.11111	1.61338	2.98181	46.5845
7.21212	1.61338	2.98181	46.4174
7.31313	1.61338	2.98181	46.243
7.41414	1.61338	2.98181	46.0629
7.51515	1.61338	2.98181	45.8782
7.61616	1.61338	2.98181	45.69
7.71717	1.61338	2.98181	45.4989
7.81818	1.61338	2.98181	45.3055
7.91919	1.61338	2.98181	45.1103
8.0202	1.61338	2.98181	44.9137
8.12121	1.61338	2.98181	44.716
8.22222	1.61338	2.98181	44.5174
8.32323	1.61338	2.98181	44.3181
8.42424	1.61338	2.98181	44.1182
8.52525	1.61338	2.98181	43.9179
8.62626	1.61338	2.98181	43.7172
8.72727	1.61338	2.98181	43.5163
8.82828	1.61338	2.98181	43.3151
8.92929	1.61338	2.98181	43.1137
9.0303	1.61338	2.98181	42.9122
9.13131	1.61338	2.98181	42.7106
9.23232	1.61338	2.98181	42.5089
9.33333	1.61338	2.98181	42.3072
9.43434	1.61338	2.98181	42.1054
9.53535	1.61338	2.98181	41.9035
9.63636	1.61338	2.98181	41.7016
9.73737	1.61338	2.98181	41.4997
9.83838	1.61338	2.98181	41.2978
9.93939	1.61338	2.98181	41.0958
10.0404	1.61338	2.98181	40.8939
10.1414	1.61338	2.98181	40.6919
10.2424	1.61338	2.98181	40.4899
10.3434	1.61338	2.98181	40.2879
10.4444	1.61338	2.98181	40.0859
10.5455	1.61338	2.98181	39.8839
10.6465	1.61338	2.98181	39.6819
10.7475	1.61338	2.98181	39.4798
10.8485	1.61338	2.98181	39.2778
10.9495	1.61338	2.98181	39.0758
11.0505	1.61338	2.98181	38.8737
11.1515	1.61338	2.98181	38.6717
11.2525	1.61338	2.98181	38.4697
11.3535	1.61338	2.98181	38.2676
11.4545	1.61338	2.98181	38.0655
11.5556	1.61338	2.98181	37.8635
11.6566	1.61338	2.98181	37.6614
11.7576	1.61338	2.98181	37.4593
11.8586	1.61338	2.98181	37.2571
11.9596	1.61338	2.98181	37.055
12.0606	1.61338	2.98181	36.8527
12.1616	1.61338	2.98181	36.6505
12.2626	1.61338	2.98181	36.4482
12.3636	1.61338	2.98181	36.2458
12.4646	1.61338	2.98181	36.0433
12.5657	1.61338	2.98181	35.8406
12.6667	1.61338	2.98181	35.6379
12.7677	1.61338	2.98181	35.4349
12.8687	1.61338	2.98181	35.2316
12.9697	1.61338	2.98181	35.0281
13.0707	1.61338	2.98181	34.8241
13.1717	1.61338	2.98181	34.6197
13.2727	1.61338	2.98181	34.4146
13.3737	1.61338	2.98181	34.2087
13.4747	1.61338	2.98181	34.0018
13.5758	1.61338	2.98181	33.7936
13.6768	1.61338	2.98181	33.5838
13.7778	1.61338	2.98181	33.3719
13.8788	1.61338	2.98181	33.1575
13.9798	1.61338	2.98181	32.9398
14.0808	1.61338	2.98181	32.718
14.1818	1.61338	2.98181	32.491
14.2828	1.61338	2.98181	32.2575
14.3838	1.61338	2.98181	32.0158
14.4848	1.61338	2.98181	31.7636
14.5859	1.61338	2.98181	31.4984
14.6869	1.61338	2.98181	31.2166
14.7879	1.61338	2.98181	30.9138
14.8889	1.61338	2.98181	30.5847
14.9899	1.61338	2.98181	30.2224
15.0909	1.61338	2.98181	29.818
15.1919	1.61338	2.98181	29.3607
15.2929	1.61338	2.98181	28.8365
15.3939	1.61338	2.98181	28.2279
15.4949	1.61338	2.98181	27.5129
15.596	1.61338	2.98181	26.6636
15.697	1.61338	2.98181	25.6447
15.798	1.61338	2.98181	24.412
15.899	1.61338	2.98181	22.9094
16	1.61338	2.98181	21.0661
6	1.62765	3.05272	46.7455
6.10101	1.62765	3.05272	46.9941
6.20202	1.62765	3.05272	47.1492
6.30303	1.62765	3.05272	47.2302
6.40404	1.62765	3.05272	47.2524
6.50505	1.62765	3.05272	47.2281
6.60606	1.62765	3.05272	47.1669
6.70707	1.62765	3.05272	47.0765
6.80808	1.62765	3.05272	46.963
6.90909	1.62765	3.05272	46.8311
7.0101	1.62765	3.05272	46.6846
7.11111	1.62765	3.05272	46.5266
7.21212	1.62765	3.05272	46.3595
7.31313	1.62765	3.05272	46.1851
7.41414	1.62765	3.05272	46.005
7.51515	1.62765	3.05272	45.8203
7.61616	1.62765	3.05272	45.6321
7.71717	1.62765	3.05272	45.441
7.81818	1.62765	3.05272	45.2476
7.91919	1.62765	3.05272	45.0524
8.0202	1.62765	3.05272	44.8558
8.12121	1.62765	3.05272	44.6581
8.22222	1.62765	3.05272	44.4595
8.32323	1.62765	3.05272	44.2602
8.42424	1.62765	3.05272	44.0603
8.52525	1.62765	3.05272	43.86
8.62626	1.62765	3.05272	43.6593
8.72727	1.62765	3.05272	43.4583
8.82828	1.62765	3.05272	43.2572
8.92929	1.62765	3.05272	43.0558
9.0303	1.62765	3.05272	42.8543
9.13131	1.62765	3.05272	42.6527
9.23232	1.62765	3.05272	42.451
9.33333	1.62765	3.05272	42.2493
9.43434	1.62765	3.05272	42.0475
9.53535	1.62765	3.05272	41.8456
9.63636	1.62765	3.05272	41.6437
9.73737	1.62765	3.05272	41.4418
9.83838	1.62765	3.05272	41.2399
9.93939	1.62765	3.05272	41.0379
10.0404	1.62765	3.05272	40.8359
10.1414	1.62765	3.05272	40.634
10.2424	1.62765	3.05272	40.432
10.3434	1.62765	3.05272	40.23
10.4444	1.62765	3.05272	40.028
10.5455	1.62765	3.05272	39.826
10.6465	1.62765	3.05272	39.6239
10.7475	1.62765	3.05272	39.4219
10.8485	1.62765	3.05272	39.2199
10.9495	1.62765	3.05272	39.0179
11.0505	1.62765	3.05272	38.8158
11.1515	1.62765	3.05272	38.6138
11.2525	1.62765	3.05272	38.4118
11.3535	1.62765	3.05272	38.2097
11.4545	1.62765	3.05272	38.0076
11.5556	1.62765	3.05272	37.8056
11.6566	1.62765	3.05272	37.6035
11.7576	1.62765	3.05272	37.4014
11.8586	1.62765	3.05272	37.1992
11.9596	1.62765	3.05272	36.997
12.0606	1.62765	3.05272	36.7948
12.1616	1.62765	3.05272	36.5926
12.2626	1.62765	3.05272	36.3903
12.3636	1.62765	3.05272	36.1879
12.4646	1.62765	3.05272	35.9854
12.5657	1.62765	3.05272	35.7827
12.6667	1.62765	3.05272	35.58
12.7677	1.62765	3.05272	35.377
12.8687	1.62765	3.05272	35.1737
12.9697	1.62765	3.05272	34.9702
13.0707	1.62765	3.05272	34.7662
13.1717	1.62765	3.05272	34.5618
13.2727	1.62765	3.05272	34.3567
13.3737	1.62765	3.05272	34.1508
13.4747	1.62765	3.05272	33.9439
13.5758	1.62765	3.05272	33.7357
13.6768	1.62765	3.05272	33.5259
13.7778	1.62765	3.05272	33.314
13.8788	1.62765	3.05272	33.0996
13.9798	1.62765	3.05272	32.8819
14.0808	1.62765	3.05272	32.6601
14.1818	1.62765	3.05272	32.4331
14.2828	1.62765	3.05272	32.1996
14.3838	1.62765	3.05272	31.9579
14.4848	1.62765	3.05272	31.7057
14.5859	1.62765	3.05272	31.4405
14.6869	1.62765	3.05272	31.1587
14.7879	1.62765	3.05272	30.8559
14.8889	1.62765	3.05272	30.5268
14.9899	1.62765	3.05272	30.1645
15.0909	1.62765	3.05272	29.7601
15.1919	1.62765	3.05272	29.3028
15.2929	1.62765	3.05272	28.7786
15.3939	1.62765	3.05272	28.17
15.4949	1.62765	3.05272	27.455
15.596	1.62765	3.05272	26.6057
15.697	1.62765	3.05272	25.5868
15.798	1.62765	3.05272	24.3541
15.899	1.62765	3.05272	22.8514
16	1.62765	3.05272	21.0082
6	1.64191	3.13692	46.697
6.10101	1.64191	3.13692	46.9456
6.20202	1.64191	3.13692	47.1007
6.30303	1.64191	3.13692	47.1817
6.40404	1.64191	3.13692	47.2039
6.50505	1.64191	3.13692	47.1796
6.60606	1.64191	3.13692	47.1185
6.70707	1.64191	3.13692	47.0281
6.80808	1.64191	3.13692	46.9145
6.90909	1.64191	3.13692	46.7826
7.0101	1.64191	3.13692	46.6361
7.11111	1.64191	3.13692	46.4781
7.21212	1.64191	3.13692	46.311
7.31313	1.64191	3.13692	46.1366
7.41414	1.64191	3.13692	45.9565
7.51515	1.64191	3.13692	45.7719
7.61616	1.64191	3.13692	45.5836
7.71717	1.64191	3.13692	45.3925
7.81818	1.64191	3.13692	45.1991
7.91919	1.64191	3.13692	45.0039
8.0202	1.64191	3.13692	44.8073
8.12121	1.64191	3.13692	44.6096
8.22222	1.64191	3.13692	44.411
8.32323	1.64191	3.13692	44.2117
8.42424	1.64191	3.13692	44.0118
8.52525	1.64191	3.13692	43.8115
8.62626	1.64191	3.13692	43.6108
8.72727	1.64191	3.13692	43.4099
8.82828	1.64191	3.13692	43.2087
8.92929	1.64191	3.13692	43.0073
9.0303	1.64191	3.13692	42.8058
9.13131	1.64191	3.13692	42.6042
9.23232	1.64191	3.13692	42.4026
9.33333	1.64191	3.13692	42.2008
9.43434	1.64191	3.13692	41.999
9.53535	1.64191	3.13692	41.7971
9.63636	1.64191	3.13692	41.5952
9.73737	1.64191	3.13692	41.3933
9.83838	1.64191	3.13692	41.1914
9.93939	1.64191	3.13692	40.9894
10.0404	1.64191	3.13692	40.7875
10.1414	1.64191	3.13692	40.5855
10.2424	1.64191	3.13692	40.3835
10.3434	1.64191	3.13692	40.1815
10.4444	1.64191	3.13692	39.9795
10.5455	1.64191	3.13692	39.7775
10.6465	1.64191	3.13692	39.5755
10.7475	1.64191	3.13692	39.3734
10.8485	1.64191	3.13692	39.1714
10.9495	1.64191	3.13692	38.9694
11.0505	1.64191	3.13692	38.7674
11.1515	1.64191	3.13692	38.5653
11.2525	1.64191	3.13692	38.3633
11.3535	1.64191	3.13692	38.1612
11.4545	1.64191	3.13692	37.9592
11.5556	1.64191	3.13692	37.7571
11.6566	1.64191	3.13692	37.555
11.7576	1.64191	3.13692	37.3529
11.8586	1.64191	3.13692	37.1507
11.9596	1.64191	3.13692	36.9486
12.0606	1.64191	3.13692	36.7464
12.1616	1.64191	3.13692	36.5441
12.2626	1.64191	3.13692	36.3418
12.3636	1.64191	3.13692	36.1394
12.4646	1.64191	3.13692	35.9369
12.5657	1.64191	3.13692	35.7343
12.6667	1.64191	3.13692	35.5315
12.7677	1.64191	3.13692	35.3285
12.8687	1.64191	3.13692	35.1253
12.9697	1.64191	3.13692	34.9217
13.0707	1.64191	3.13692	34.7178
13.1717	1.64191	3.13692	34.5133
13.2727	1.64191	3.13692	34.3082
13.3737	1.64191	3.13692	34.1023
13.4747	1.64191	3.13692	33.8954
13.5758	1.64191	3.13692	33.6872
13.6768	1.64191	3.13692	33.4774
13.7778	1.64191	3.13692	33.2655
13.8788	1.64191	3.13692	33.0511
13.9798	1.64191	3.13692	32.8334
14.0808	1.64191	3.13692	32.6116
14.1818	1.64191	3.13692	32.3846
14.2828	1.64191	3.13692	32.1511
14.3838	1.64191	3.13692	31.9094
14.4848	1.64191	3.13692	31.6573
14.5859	1.64191	3.13692	31.392
14.6869	1.64191	3.13692	31.1102
14.7879	1.64191	3.13692	30.8074
14.8889	1.64191	3.13692	30.4784
14.9899	1.64191	3.13692	30.116
15.0909	1.64191	3.13692	29.7116
15.1919	1.64191	3.13692	29.2543
15.2929	1.64191	3.13692	28.7301
15.3939	1.64191	3.13692	28.1215
15.4949	1.64191	3.13692	27.4065
15.596	1.64191	3.13692	26.5572
15.697	1.64191	3.13692	25.5383
15.798	1.64191	3.13692	24.3056
15.899	1.64191	3.13692	22.803
16	1.64191	3.13692	20.9597
6	1.65618	3.21653	46.638
6.10101	1.65618	3.21653	46.8866
6.20202	1.65618	3.21653	47.0417
6.30303	1.65618	3.21653	47.1227
6.40404	1.65618	3.21653	47.145
6.50505	1.65618	3.21653	47.1207
6.60606	1.65618	3.21653	47.0595
6.70707	1.65618	3.21653	46.9691
6.80808	1.65618	3.21653	46.8555
6.90909	1.65618	3.21653	46.7236
7.0101	1.65618	3.21653	46.5772
7.11111	1.65618	3.21653	46.4192
7.21212	1.65618	3.21653	46.252
7.31313	1.65618	3.21653	46.0777
7.41414	1.65618	3.21653	45.8976
7.51515	1.65618	3.21653	45.7129
7.61616	1.65618	3.21653	45.5246
7.71717	1.65618	3.21653	45.3335
7.81818	1.65618	3.21653	45.1402
7.91919	1.65618	3.21653	44.945
8.0202	1.65618	3.21653	44.7484
8.12121	1.65618	3.21653	44.5507
8.22222	1.65618	3.21653	44.3521
8.32323	1.65618	3.21653	44.1527
8.42424	1.65618	3.21653	43.9529
8.52525	1.65618	3.21653	43.7525
8.62626	1.65618	3.21653	43.5519
8.72727	1.65618	3.21653	43.3509
8.82828	1.65618	3.21653	43.1497
8.92929	1.65618	3.21653	42.9484
9.0303	1.65618	3.21653	42.7469
9.13131	1.65618	3.21653	42.5453
9.23232	1.65618	3.21653	42.3436
9.33333	1.65618	3.21653	42.1418
9.43434	1.65618	3.21653	41.94
9.53535	1.65618	3.21653	41.7382
9.63636	1.65618	3.21653	41.5363
9.73737	1.65618	3.21653	41.3344
9.83838	1.65618	3.21653	41.1324
9.93939	1.65618	3.21653	40.9305
10.0404	1.65618	3.21653	40.7285
10.1414	1.65618	3.21653	40.5265
10.2424	1.65618	3.21653	40.3245
10.3434	1.65618	3.21653	40.1225
10.4444	1.65618	3.21653	39.9205
10.5455	1.65618	3.21653	39.7185
10.6465	1.65618	3.21653	39.5165
10.7475	1.65618	3.21653	39.3145
10.8485	1.65618	3.21653	39.1125
10.9495	1.65618	3.21653	38.9104
11.0505	1.65618	3.21653	38.7084
11.1515	1.65618	3.21653	38.5064
11.2525	1.65618	3.21653	38.3043
11.3535	1.65618	3.21653	38.1023
11.4545	1.65618	3.21653	37.9002
11.5556	1.65618	3.21653	37.6981
11.6566	1.65618	3.21653	37.496
11.7576	1.65618	3.21653	37.2939
11.8586	1.65618	3.21653	37.0918
11.9596	1.65618	3.21653	36.8896
12.0606	1.65618	3.21653	36.6874
12.1616	1.65618	3.21653	36.4851
12.2626	1.65618	3.21653	36.2828
12.3636	1.65618	3.21653	36.0804
12.4646	1.65618	3.21653	35.8779
12.5657	1.65618	3.21653	35.6753
12.6667	1.65618	3.21653	35.4725
12.7677	1.65618	3.21653	35.2695
12.8687	1.65618	3.21653	35.0663
12.9697	1.65618	3.21653	34.8628
13.0707	1.65618	3.21653	34.6588
13.1717	1.65618	3.21653	34.4543
13.2727	1.65618	3.21653	34.2492
13.3737	1.65618	3.21653	34.0433
13.4747	1.65618	3.21653	33.8364
13.5758	1.65618	3.21653	33.6282
13.6768	1.65618	3.21653	33.4184
13.7778	1.65618	3.21653	33.2066
13.8788	1.65618	3.21653	32.9921
13.9798	1.65618	3.21653	32.7744
14.0808	1.65618	3.21653	32.5526
14.1818	1.65618	3.21653	32.3257
14.2828	1.65618	3.21653	32.0922
14.3838	1.65618	3.21653	31.8504
14.4848	1.65618	3.21653	31.5983
14.5859	1.65618	3.21653	31.333
14.6869	1.65618	3.21653	31.0512
14.7879	1.65618	3.21653	30.7485
14.8889	1.65618	3.21653	30.4194
14.9899	1.65618	3.21653	30.057
15.0909	1.65618	3.21653	29.6527
15.1919	1.65618	3.21653	29.1953
15.2929	1.65618	3.21653	28.6711
15.3939	1.65618	3.21653	28.0626
15.4949	1.65618	3.21653	27.3476
15.596	1.65618	3.21653	26.4982
15.697	1.65618	3.21653	25.4794
15.798	1.65618	3.21653	24.2466
15.899	1.65618	3.21653	22.744
16	1.65618	3.21653	20.9008
6	1.67044	3.2976	46.5741
6.10101	1.67044	3.2976	46.8227
6.20202	1.67044	3.2976	46.9778
6.30303	1.67044	3.2976	47.0588
6.40404	1.67044	3.2976	47.081
6.50505	1.67044	3.2976	47.0567
6.60606	1.67044	3.2976	46.9956
6.70707	1.67044	3.2976	46.9052
6.80808	1.67044	3.2976	46.7916
6.90909	1.67044	3.2976	46.6597
7.0101	1.67044	3.2976	46.5132
7.11111	1.67044	3.2976	46.3552
7.21212	1.67044	3.2976	46.1881
7.31313	1.67044	3.2976	46.0137
7.41414	1.67044	3.2976	45.8336
7.51515	1.67044	3.2976	45.649
7.61616	1.67044	3.2976	45.4607
7.71717	1.67044	3.2976	45.2696
7.81818	1.67044	3.2976	45.0762
7.91919	1.67044	3.2976	44.881
8.0202	1.67044	3.2976	44.6844
8.12121	1.67044	3.2976	44.4867
8.22222	1.67044	3.2976	44.2881
8.32323	1.67044	3.2976	44.0888
8.42424	1.67044	3.2976	43.8889
8.52525	1.67044	3.2976	43.6886
8.62626	1.67044	3.2976	43.4879
8.72727	1.67044	3.2976	43.287
8.82828	1.67044	3.2976	43.0858
8.92929	1.67044	3.2976	42.8844
9.0303	1.67044	3.2976	42.6829
9.13131	1.67044	3.2976	42.4813
9.23232	1.67044	3.2976	42.2797
9.33333	1.67044	3.2976	42.0779
9.43434	1.67044	3.2976	41.8761
9.53535	1.67044	3.2976	41.6742
9.63636	1.67044	3.2976	41.4723
9.73737	1.67044	3.2976	41.2704
9.83838	1.67044	3.2976	41.0685
9.93939	1.67044	3.2976	40.8665
10.0404	1.67044	3.2976	40.6646
10.1414	1.67044	3.2976	40.4626
10.2424	1.67044	3.2976	40.2606
10.3434	1.67044	3.2976	40.0586
10.4444	1.67044	3.2976	39.8566
10.5455	1.67044	3.2976	39.6546
10.6465	1.67044	3.2976	39.4526
10.7475	1.67044	3.2976	39.2505
10.8485	1.67044	3.2976	39.0485
10.9495	1.67044	3.2976	38.8465
11.0505	1.67044	3.2976	38.6445
11.1515	1.67044	3.2976	38.4424
11.2525	1.67044	3.2976	38.2404
11.3535	1.67044	3.2976	38.0383
11.4545	1.67044	3.2976	37.8363
11.5556	1.67044	3.2976	37.6342
11.6566	1.67044	3.2976	37.4321
11.7576	1.67044	3.2976	37.23
11.8586	1.67044	3.2976	37.0278
11.9596	1.67044	3.2976	36.8257
12.0606	1.67044	3.2976	36.6235
12.1616	1.67044	3.2976	36.4212
12.2626	1.67044	3.2976	36.2189
12.3636	1.67044	3.2976	36.0165
12.4646	1.67044	3.2976	35.814
12.5657	1.67044	3.2976	35.6114
12.6667	1.67044	3.2976	35.4086
12.7677	1.67044	3.2976	35.2056
12.8687	1.67044	3.2976	35.0024
12.9697	1.67044	3.2976	34.7988
13.0707	1.67044	3.2976	34.5949
13.1717	1.67044	3.2976	34.3904
13.2727	1.67044	3.2976	34.1853
13.3737	1.67044	3.2976	33.9794
13.4747	1.67044	3.2976	33.7725
13.5758	1.67044	3.2976	33.5643
13.6768	1.67044	3.2976	33.3545
13.7778	1.67044	3.2976	33.1426
13.8788	1.67044	3.2976	32.9282
13.9798	1.67044	3.2976	32.7105
14.0808	1.67044	3.2976	32.4887
14.1818	1.67044	3.2976	32.2617
14.2828	1.67044	3.2976	32.0282
14.3838	1.67044	3.2976	31.7865
14.4848	1.67044	3.2976	31.5344
14.5859	1.67044	3.2976	31.2691
14.6869	1.67044	3.2976	30.9873
14.7879	1.67044	3.2976	30.6845
14.8889	1.67044	3.2976	30.3555
14.9899	1.67044	3.2976	29.9931
15.0909	1.67044	3.2976	29.5887
15.1919	1.67044	3.2976	29.1314
15.2929	1.67044	3.2976	28.6072
15.3939	1.67044	3.2976	27.9986
15.4949	1.67044	3.2976	27.2836
15.596	1.67044	3.2976	26.4343
15.697	1.67044	3.2976	25.4154
15.798	1.67044	3.2976	24.1827
15.899	1.67044	3.2976	22.6801
16	1.67044	3.2976	20.8368
6	1.68471	3.39279	46.5209
6.10101	1.68471	3.39279	46.7695
6.20202	1.68471	3.39279	46.9246
6.30303	1.68471	3.39279	47.0056
6.40404	1.68471	3.39279	47.0278
6.50505	1.68471	3.39279	47.0036
6.60606	1.68471	3.39279	46.9424
6.70707	1.68471	3.39279	46.852
6.80808	1.68471	3.39279	46.7384
6.90909	1.68471	3.39279	46.6065
7.0101	1.68471	3.39279	46.46
7.11111	1.68471	3.39279	46.302
7.21212	1.68471	3.39279	46.1349
7.31313	1.68471	3.39279	45.9605
7.41414	1.68471	3.39279	45.7804
7.51515	1.68471	3.39279	45.5958
7.61616	1.68471	3.39279	45.4075
7.71717	1.68471	3.39279	45.2164
7.81818	1.68471	3.39279	45.023
7.91919	1.68471	3.39279	44.8279
8.0202	1.68471	3.39279	44.6313
8.12121	1.68471	3.39279	44.4335
8.22222	1.68471	3.39279	44.2349
8.32323	1.68471	3.39279	44.0356
8.42424	1.68471	3.39279	43.8357
8.52525	1.68471	3.39279	43.6354
8.62626	1.68471	3.39279	43.4347
8.72727	1.68471	3.39279	43.2338
8.82828	1.68471	3.39279	43.0326
8.92929	1.68471	3.39279	42.8313
9.0303	1.68471	3.39279	42.6298
9.13131	1.68471	3.39279	42.4282
9.23232	1.68471	3.39279	42.2265
9.33333	1.68471	3.39279	42.0247
9.43434	1.68471	3.39279	41.8229
9.53535	1.68471	3.39279	41.6211
9.63636	1.68471	3.39279	41.4192
9.73737	1.68471	3.39279	41.2172
9.83838	1.68471	3.39279	41.0153
9.93939	1.68471	3.39279	40.8134
10.0404	1.68471	3.39279	40.6114
10.1414	1.68471	3.39279	40.4094
10.2424	1.68471	3.39279	40.2074
10.3434	1.68471	3.39279	40.0054
10.4444	1.68471	3.39279	39.8034
10.5455	1.68471	3.39279	39.6014
10.6465	1.68471	3.39279	39.3994
10.7475	1.68471	3.39279	39.1974
10.8485	1.68471	3.39279	38.9953
10.9495	1.68471	3.39279	38.7933
11.0505	1.68471	3.39279	38.5913
11.1515	1.68471	3.39279	38.3892
11.2525	1.68471	3.39279	38.1872
11.3535	1.68471	3.39279	37.9851
11.4545	1.68471	3.39279	37.7831
11.5556	1.68471	3.39279	37.581
11.6566	1.68471	3.39279	37.3789
11.7576	1.68471	3.39279	37.1768
11.8586	1.68471	3.39279	36.9747
11.9596	1.68471	3.39279	36.7725
12.0606	1.68471	3.39279	36.5703
12.1616	1.68471	3.39279	36.368
12.2626	1.68471	3.39279	36.1657
12.3636	1.68471	3.39279	35.9633
12.4646	1.68471	3.39279	35.7608
12.5657	1.68471	3.39279	35.5582
12.6667	1.68471	3.39279	35.3554
12.7677	1.68471	3.39279	35.1524
12.8687	1.68471	3.39279	34.9492
12.9697	1.68471	3.39279	34.7456
13.0707	1.68471	3.39279	34.5417
13.1717	1.68471	3.39279	34.3372
13.2727	1.68471	3.39279	34.1321
13.3737	1.68471	3.39279	33.9262
13.4747	1.68471	3.39279	33.7193
13.5758	1.68471	3.39279	33.5111
13.6768	1.68471	3.39279	33.3013
13.7778	1.68471	3.39279	33.0894
13.8788	1.68471	3.39279	32.875
13.9798	1.68471	3.39279	32.6573
14.0808	1.68471	3.39279	32.4355
14.1818	1.68471	3.39279	32.2086
14.2828	1.68471	3.39279	31.9751
14.3838	1.68471	3.39279	31.7333
14.4848	1.68471	3.39279	31.4812
14.5859	1.68471	3.39279	31.2159
14.6869	1.68471	3.39279	30.9341
14.7879	1.68471	3.39279	30.6314
14.8889	1.68471	3.39279	30.3023
14.9899	1.68471	3.39279	29.9399
15.0909	1.68471	3.39279	29.5356
15.1919	1.68471	3.39279	29.0782
15.2929	1.68471	3.39279	28.554
15.3939	1.68471	3.39279	27.9455
15.4949	1.68471	3.39279	27.2305
15.596	1.68471	3.39279	26.3811
15.697	1.68471	3.39279	25.3623
15.798	1.68471	3.39279	24.1295
15.899	1.68471	3.39279	22.6269
16	1.68471	3.39279	20.7837
6	1.69897	3.48351	-inf
6.10101	1.69897	3.48351	-inf
6.20202	1.69897	3.48351	-inf
6.30303	1.69897	3.48351	-inf
6.40404	1.69897	3.48351	-inf
6.50505	1.69897	3.48351	-inf
6.60606	1.69897	3.48351	-inf
6.70707	1.69897	3.48351	-inf
6.80808	1.69897	3.48351	-inf
6.90909	1.69897	3.48351	-inf
7.0101	1.69897	3.48351	-inf
7.11111	1.69897	3.48351	-inf
7.21212	1.69897	3.48351	-inf
7.31313	1.69897	3.48351	-inf
7.41414	1.69897	3.48351	-inf
7.51515	1.69897	3.48351	-inf
7.61616	1.69897	3.48351	-inf
7.71717	1.69897	3.48351	-inf
7.81818	1.69897	3.48351	-inf
7.91919	1.69897	3.48351	-inf
8.0202	1.69897	3.48351	-inf
8.12121	1.69897	3.48351	-inf
8.22222	1.69897	3.48351	-inf
8.32323	1.69897	3.48351	-inf
8.42424	1.69897	3.48351	-inf
8.52525	1.69897	3.48351	-inf
8.62626	1.69897	3.48351	-inf
8.72727	1.69897	3.48351	-inf
8.82828	1.69897	3.48351	-inf
8.92929	1.69897	3.48351	-inf
9.0303	1.69897	3.48351	-inf
9.13131	1.69897	3.48351	-inf
9.23232	1.69897	3.48351	-inf
9.33333	1.69897	3.48351	-inf
9.43434	1.69897	3.48351	-inf
9.53535	1.69897	3.48351	-inf
9.63636	1.69897	3.48351	-inf
9.73737	1.69897	3.48351	-inf
9.83838	1.69897	3.48351	-inf
9.93939	1.69897	3.48351	-inf
10.0404	1.69897	3.48351	-inf
10.1414	1.69897	3.48351	-inf
10.2424	1.69897	3.48351	-inf
10.3434	1.69897	3.48351	-inf
10.4444	1.69897	3.48351	-inf
10.5455	1.69897	3.48351	-inf
10.6465	1.69897	3.48351	-inf
10.7475	1.69897	3.48351	-inf
10.8485	1.69897	3.48351	-inf
10.9495	1.69897	3.48351	-inf
11.0505	1.69897	3.48351	-inf
11.1515	1.69897	3.48351	-inf
11.2525	1.69897	3.48351	-inf
11.3535	1.69897	3.48351	-inf
11.4545	1.69897	3.48351	-inf
11.5556	1.69897	3.48351	-inf
11.6566	1.69897	3.48351	-inf
11.7576	1.69897	3.48351	-inf
11.8586	1.69897	3.48351	-inf
11.9596	1.69897	3.48351	-inf
12.0606	1.69897	3.48351	-inf
12.1616	1.69897	3.48351	-inf
12.2626	1.69897	3.48351	-inf
12.3636	1.69897	3.48351	-inf
12.4646	1.69897	3.48351	-inf
12.5657	1.69897	3.48351	-inf
12.6667	1.69897	3.48351	-inf
12.7677	1.69897	3.48351	-inf
12.8687	1.69897	3.48351	-inf
12.9697	1.69897	3.48351	-inf
13.0707	1.69897	3.48351	-inf
13.1717	1.69897	3.48351	-inf
13.2727	1.69897	3.48351	-inf
13.3737	1.69897	3.48351	-inf
13.4747	1.69897	3.48351	-inf
13.5758	1.69897	3.48351	-inf
13.6768	1.69897	3.48351	-inf
13.7778	1.69897	3.48351	-inf
13.8788	1.69897	3.48351	-inf
13.9798	1.69897	3.48351	-inf
14.0808	1.69897	3.48351	-inf
14.1818	1.69897	3.48351	-inf
14.2828	1.69897	3.48351	-inf
14.3838	1.69897	3.48351	-inf
14.4848	1.69897	3.48351	-inf
14.5859	1.69897	3.48351	-inf
14.6869	1.69897	3.48351	-inf
14.7879	1.69897	3.48351	-inf
14.8889	1.69897	3.48351	-inf
14.9899	1.69897	3.48351	-inf
15.0909	1.69897	3.48351	-inf
15.1919	1.69897	3.48351	-inf
15.2929	1.69897	3.48351	-inf
15.3939	1.69897	3.48351	-inf
15.4949	1.69897	3.48351	-inf
15.596	1.69897	3.48351	-inf
15.697	1.69897	3.48351	-inf
15.798	1.69897	3.48351	-inf
15.899	1.69897	3.48351	-inf
16	1.69897	3.48351	-inf
