log(E / eV)	log(z / pc)	t / yr	 logQ
6	1	0	56.9633
6.37931	1	0	57.4451
6.75862	1	0	57.2106
7.13793	1	0	56.6714
7.51724	1	0	56.0045
7.89655	1	0	55.2842
8.27586	1	0	54.5415
8.65517	1	0	53.7896
9.03448	1	0	53.0338
9.41379	1	0	52.2763
9.7931	1	0	51.5181
10.1724	1	0	50.7598
10.5517	1	0	49.9988
10.931	1	0	49.2056
11.3103	1	0	48.3269
11.6897	1	0	47.3436
12.069	1	0	46.2794
12.4483	1	0	45.1644
12.8276	1	0	44.0144
13.2069	1	0	42.8281
13.5862	1	0	41.5867
13.9655	1	0	40.2462
14.3448	1	0	38.7135
14.7241	1	0	36.7659
15.1034	1	0	33.7759
15.4828	1	0	28.2107
15.8621	1	0	16.4693
16.2414	1	0	-10.0642
16.6207	1	0	-72.0252
17	1	0	-inf
6	1.03448	0.40007	58.2403
6.37931	1.03448	0.40007	58.3273
6.75862	1.03448	0.40007	58.0074
7.13793	1.03448	0.40007	57.4439
7.51724	1.03448	0.40007	56.7685
7.89655	1.03448	0.40007	56.0448
8.27586	1.03448	0.40007	55.3008
8.65517	1.03448	0.40007	54.5483
9.03448	1.03448	0.40007	53.7914
9.41379	1.03448	0.40007	53.0246
9.7931	1.03448	0.40007	52.2193
10.1724	1.03448	0.40007	51.3322
10.5517	1.03448	0.40007	50.3483
10.931	1.03448	0.40007	49.2895
11.3103	1.03448	0.40007	48.1871
11.6897	1.03448	0.40007	47.062
12.069	1.03448	0.40007	45.924
12.4483	1.03448	0.40007	44.7748
12.8276	1.03448	0.40007	43.6099
13.2069	1.03448	0.40007	42.4173
13.5862	1.03448	0.40007	41.1733
13.9655	1.03448	0.40007	39.8318
14.3448	1.03448	0.40007	38.2987
14.7241	1.03448	0.40007	36.3509
15.1034	1.03448	0.40007	33.3609
15.4828	1.03448	0.40007	27.7956
15.8621	1.03448	0.40007	16.0543
16.2414	1.03448	0.40007	-10.4793
16.6207	1.03448	0.40007	-72.4403
17	1.03448	0.40007	-inf
6	1.06897	0.824155	58.9178
6.37931	1.06897	0.824155	58.9069
6.75862	1.06897	0.824155	58.558
7.13793	1.06897	0.824155	57.9856
7.51724	1.06897	0.824155	57.3069
7.89655	1.06897	0.824155	56.582
8.27586	1.06897	0.824155	55.8374
8.65517	1.06897	0.824155	55.0842
9.03448	1.06897	0.824155	54.3237
9.41379	1.06897	0.824155	53.5411
9.7931	1.06897	0.824155	52.6996
10.1724	1.06897	0.824155	51.7663
10.5517	1.06897	0.824155	50.7446
10.931	1.06897	0.824155	49.6633
11.3103	1.06897	0.824155	48.5496
11.6897	1.06897	0.824155	47.4194
12.069	1.06897	0.824155	46.2792
12.4483	1.06897	0.824155	45.1291
12.8276	1.06897	0.824155	43.9638
13.2069	1.06897	0.824155	42.771
13.5862	1.06897	0.824155	41.527
13.9655	1.06897	0.824155	40.1854
14.3448	1.06897	0.824155	38.6523
14.7241	1.06897	0.824155	36.7045
15.1034	1.06897	0.824155	33.7145
15.4828	1.06897	0.824155	28.1492
15.8621	1.06897	0.824155	16.4079
16.2414	1.06897	0.824155	-10.1257
16.6207	1.06897	0.824155	-72.0867
17	1.06897	0.824155	-inf
6	1.10345	1.27409	59.3627
6.37931	1.10345	1.27409	59.289
6.75862	1.10345	1.27409	58.9193
7.13793	1.10345	1.27409	58.3402
7.51724	1.10345	1.27409	57.6591
7.89655	1.10345	1.27409	56.9332
8.27586	1.10345	1.27409	56.1881
8.65517	1.10345	1.27409	55.4336
9.03448	1.10345	1.27409	54.6675
9.41379	1.10345	1.27409	53.8686
9.7931	1.10345	1.27409	52.9991
10.1724	1.10345	1.27409	52.0361
10.5517	1.10345	1.27409	50.993
10.931	1.10345	1.27409	49.8998
11.3103	1.10345	1.27409	48.7805
11.6897	1.10345	1.27409	47.6479
12.069	1.10345	1.27409	46.5066
12.4483	1.10345	1.27409	45.356
12.8276	1.10345	1.27409	44.1905
13.2069	1.10345	1.27409	42.9977
13.5862	1.10345	1.27409	41.7536
13.9655	1.10345	1.27409	40.412
14.3448	1.10345	1.27409	38.8789
14.7241	1.10345	1.27409	36.9311
15.1034	1.10345	1.27409	33.9411
15.4828	1.10345	1.27409	28.3758
15.8621	1.10345	1.27409	16.6344
16.2414	1.10345	1.27409	-9.89907
16.6207	1.10345	1.27409	-71.8601
17	1.10345	1.27409	-inf
6	1.13793	1.75186	59.6872
6.37931	1.13793	1.75186	59.5696
6.75862	1.13793	1.75186	59.1844
7.13793	1.13793	1.75186	58.6001
7.51724	1.13793	1.75186	57.9171
7.89655	1.13793	1.75186	57.1904
8.27586	1.13793	1.75186	56.4447
8.65517	1.13793	1.75186	55.6884
9.03448	1.13793	1.75186	54.9159
9.41379	1.13793	1.75186	54.1017
9.7931	1.13793	1.75186	53.2096
10.1724	1.13793	1.75186	52.2254
10.5517	1.13793	1.75186	51.1681
10.931	1.13793	1.75186	50.0674
11.3103	1.13793	1.75186	48.9446
11.6897	1.13793	1.75186	47.8104
12.069	1.13793	1.75186	46.6685
12.4483	1.13793	1.75186	45.5177
12.8276	1.13793	1.75186	44.352
13.2069	1.13793	1.75186	43.1592
13.5862	1.13793	1.75186	41.9151
13.9655	1.13793	1.75186	40.5735
14.3448	1.13793	1.75186	39.0404
14.7241	1.13793	1.75186	37.0926
15.1034	1.13793	1.75186	34.1025
15.4828	1.13793	1.75186	28.5373
15.8621	1.13793	1.75186	16.7959
16.2414	1.13793	1.75186	-9.7376
16.6207	1.13793	1.75186	-71.6986
17	1.13793	1.75186	-inf
6	1.17241	2.25957	59.9388
6.37931	1.17241	2.25957	59.7889
6.75862	1.17241	2.25957	59.3915
7.13793	1.17241	2.25957	58.8032
7.51724	1.17241	2.25957	58.1186
7.89655	1.17241	2.25957	57.3913
8.27586	1.17241	2.25957	56.6448
8.65517	1.17241	2.25957	55.8862
9.03448	1.17241	2.25957	55.1069
9.41379	1.17241	2.25957	54.2786
9.7931	1.17241	2.25957	53.3678
10.1724	1.17241	2.25957	52.3672
10.5517	1.17241	2.25957	51.2996
10.931	1.17241	2.25957	50.1936
11.3103	1.17241	2.25957	49.0683
11.6897	1.17241	2.25957	47.9331
12.069	1.17241	2.25957	46.7907
12.4483	1.17241	2.25957	45.6397
12.8276	1.17241	2.25957	44.474
13.2069	1.17241	2.25957	43.2811
13.5862	1.17241	2.25957	42.0369
13.9655	1.17241	2.25957	40.6953
14.3448	1.17241	2.25957	39.1622
14.7241	1.17241	2.25957	37.2145
15.1034	1.17241	2.25957	34.2244
15.4828	1.17241	2.25957	28.6592
15.8621	1.17241	2.25957	16.9178
16.2414	1.17241	2.25957	-9.61575
16.6207	1.17241	2.25957	-71.5768
17	1.17241	2.25957	-inf
6	1.2069	2.79949	60.142
6.37931	1.2069	2.79949	59.9673
6.75862	1.2069	2.79949	59.5602
7.13793	1.2069	2.79949	58.9686
7.51724	1.2069	2.79949	58.2828
7.89655	1.2069	2.79949	57.5548
8.27586	1.2069	2.79949	56.8074
8.65517	1.2069	2.79949	56.0463
9.03448	1.2069	2.79949	55.2601
9.41379	1.2069	2.79949	54.4186
9.7931	1.2069	2.79949	53.4917
10.1724	1.2069	2.79949	52.4778
10.5517	1.2069	2.79949	51.4021
10.931	1.2069	2.79949	50.2921
11.3103	1.2069	2.79949	49.165
11.6897	1.2069	2.79949	48.0289
12.069	1.2069	2.79949	46.8862
12.4483	1.2069	2.79949	45.735
12.8276	1.2069	2.79949	44.5693
13.2069	1.2069	2.79949	43.3764
13.5862	1.2069	2.79949	42.1322
13.9655	1.2069	2.79949	40.7906
14.3448	1.2069	2.79949	39.2575
14.7241	1.2069	2.79949	37.3097
15.1034	1.2069	2.79949	34.3197
15.4828	1.2069	2.79949	28.7544
15.8621	1.2069	2.79949	17.013
16.2414	1.2069	2.79949	-9.52047
16.6207	1.2069	2.79949	-71.4815
17	1.2069	2.79949	-inf
6	1.24138	3.37405	60.2386
6.37931	1.24138	3.37405	60.0442
6.75862	1.24138	3.37405	59.6292
7.13793	1.24138	3.37405	59.0348
7.51724	1.24138	3.37405	58.3479
7.89655	1.24138	3.37405	57.6193
8.27586	1.24138	3.37405	56.871
8.65517	1.24138	3.37405	56.1071
9.03448	1.24138	3.37405	55.3138
9.41379	1.24138	3.37405	54.46
9.7931	1.24138	3.37405	53.5189
10.1724	1.24138	3.37405	52.4939
10.5517	1.24138	3.37405	51.4116
10.931	1.24138	3.37405	50.2983
11.3103	1.24138	3.37405	49.1698
11.6897	1.24138	3.37405	48.0331
12.069	1.24138	3.37405	46.8901
12.4483	1.24138	3.37405	45.7388
12.8276	1.24138	3.37405	44.573
13.2069	1.24138	3.37405	43.3801
13.5862	1.24138	3.37405	42.136
13.9655	1.24138	3.37405	40.7943
14.3448	1.24138	3.37405	39.2612
14.7241	1.24138	3.37405	37.3135
15.1034	1.24138	3.37405	34.3234
15.4828	1.24138	3.37405	28.7582
15.8621	1.24138	3.37405	17.0168
16.2414	1.24138	3.37405	-9.51675
16.6207	1.24138	3.37405	-71.4778
17	1.24138	3.37405	-inf
6	1.27586	3.98586	60.3118
6.37931	1.27586	3.98586	60.1014
6.75862	1.27586	3.98586	59.6798
7.13793	1.27586	3.98586	59.0831
7.51724	1.27586	3.98586	58.3953
7.89655	1.27586	3.98586	57.6661
8.27586	1.27586	3.98586	56.9167
8.65517	1.27586	3.98586	56.1497
9.03448	1.27586	3.98586	55.3493
9.41379	1.27586	3.98586	54.4839
9.7931	1.27586	3.98586	53.53
10.1724	1.27586	3.98586	52.4954
10.5517	1.27586	3.98586	51.4076
10.931	1.27586	3.98586	50.2917
11.3103	1.27586	3.98586	49.1619
11.6897	1.27586	3.98586	48.0248
12.069	1.27586	3.98586	46.8816
12.4483	1.27586	3.98586	45.7302
12.8276	1.27586	3.98586	44.5643
13.2069	1.27586	3.98586	43.3714
13.5862	1.27586	3.98586	42.1272
13.9655	1.27586	3.98586	40.7856
14.3448	1.27586	3.98586	39.2525
14.7241	1.27586	3.98586	37.3047
15.1034	1.27586	3.98586	34.3147
15.4828	1.27586	3.98586	28.7494
15.8621	1.27586	3.98586	17.008
16.2414	1.27586	3.98586	-9.52547
16.6207	1.27586	3.98586	-71.4865
17	1.27586	3.98586	-inf
6	1.31034	4.63773	60.3768
6.37931	1.31034	4.63773	60.1532
6.75862	1.31034	4.63773	59.7261
7.13793	1.31034	4.63773	59.1273
7.51724	1.31034	4.63773	58.4387
7.89655	1.31034	4.63773	57.7089
8.27586	1.31034	4.63773	56.9583
8.65517	1.31034	4.63773	56.1882
9.03448	1.31034	4.63773	55.3806
9.41379	1.31034	4.63773	54.5039
9.7931	1.31034	4.63773	53.5384
10.1724	1.31034	4.63773	52.4954
10.5517	1.31034	4.63773	51.4029
10.931	1.31034	4.63773	50.2847
11.3103	1.31034	4.63773	49.154
11.6897	1.31034	4.63773	48.0164
12.069	1.31034	4.63773	46.873
12.4483	1.31034	4.63773	45.7215
12.8276	1.31034	4.63773	44.5557
13.2069	1.31034	4.63773	43.3627
13.5862	1.31034	4.63773	42.1186
13.9655	1.31034	4.63773	40.7769
14.3448	1.31034	4.63773	39.2438
14.7241	1.31034	4.63773	37.2961
15.1034	1.31034	4.63773	34.306
15.4828	1.31034	4.63773	28.7408
15.8621	1.31034	4.63773	16.9994
16.2414	1.31034	4.63773	-9.53415
16.6207	1.31034	4.63773	-71.4952
17	1.31034	4.63773	-inf
6	1.34483	5.33267	60.4356
6.37931	1.34483	5.33267	60.2008
6.75862	1.34483	5.33267	59.7689
7.13793	1.34483	5.33267	59.1685
7.51724	1.34483	5.33267	58.4791
7.89655	1.34483	5.33267	57.7487
8.27586	1.34483	5.33267	56.9968
8.65517	1.34483	5.33267	56.2233
9.03448	1.34483	5.33267	55.4084
9.41379	1.34483	5.33267	54.521
9.7931	1.34483	5.33267	53.5448
10.1724	1.34483	5.33267	52.4942
10.5517	1.34483	5.33267	51.3977
10.931	1.34483	5.33267	50.2776
11.3103	1.34483	5.33267	49.146
11.6897	1.34483	5.33267	48.008
12.069	1.34483	5.33267	46.8645
12.4483	1.34483	5.33267	45.713
12.8276	1.34483	5.33267	44.5471
13.2069	1.34483	5.33267	43.3541
13.5862	1.34483	5.33267	42.1099
13.9655	1.34483	5.33267	40.7683
14.3448	1.34483	5.33267	39.2352
14.7241	1.34483	5.33267	37.2874
15.1034	1.34483	5.33267	34.2973
15.4828	1.34483	5.33267	28.7321
15.8621	1.34483	5.33267	16.9907
16.2414	1.34483	5.33267	-9.54279
16.6207	1.34483	5.33267	-71.5038
17	1.34483	5.33267	-inf
6	1.37931	6.07389	60.4894
6.37931	1.37931	6.07389	60.2452
6.75862	1.37931	6.07389	59.8092
7.13793	1.37931	6.07389	59.2072
7.51724	1.37931	6.07389	58.5172
7.89655	1.37931	6.07389	57.7861
8.27586	1.37931	6.07389	57.0329
8.65517	1.37931	6.07389	56.2557
9.03448	1.37931	6.07389	55.4335
9.41379	1.37931	6.07389	54.5357
9.7931	1.37931	6.07389	53.5495
10.1724	1.37931	6.07389	52.4922
10.5517	1.37931	6.07389	51.3921
10.931	1.37931	6.07389	50.2703
11.3103	1.37931	6.07389	49.1379
11.6897	1.37931	6.07389	47.9996
12.069	1.37931	6.07389	46.856
12.4483	1.37931	6.07389	45.7044
12.8276	1.37931	6.07389	44.5385
13.2069	1.37931	6.07389	43.3455
13.5862	1.37931	6.07389	42.1013
13.9655	1.37931	6.07389	40.7597
14.3448	1.37931	6.07389	39.2266
14.7241	1.37931	6.07389	37.2788
15.1034	1.37931	6.07389	34.2888
15.4828	1.37931	6.07389	28.7235
15.8621	1.37931	6.07389	16.9821
16.2414	1.37931	6.07389	-9.55138
16.6207	1.37931	6.07389	-71.5124
17	1.37931	6.07389	-inf
6	1.41379	6.86487	60.5394
6.37931	1.41379	6.86487	60.2869
6.75862	1.41379	6.86487	59.8473
7.13793	1.41379	6.86487	59.244
7.51724	1.41379	6.86487	58.5533
7.89655	1.41379	6.86487	57.8216
8.27586	1.41379	6.86487	57.0669
8.65517	1.41379	6.86487	56.2859
9.03448	1.41379	6.86487	55.4562
9.41379	1.41379	6.86487	54.5483
9.7931	1.41379	6.86487	53.5529
10.1724	1.41379	6.86487	52.4895
10.5517	1.41379	6.86487	51.3862
10.931	1.41379	6.86487	50.2628
11.3103	1.41379	6.86487	49.1299
11.6897	1.41379	6.86487	47.9913
12.069	1.41379	6.86487	46.8475
12.4483	1.41379	6.86487	45.6959
12.8276	1.41379	6.86487	44.5299
13.2069	1.41379	6.86487	43.337
13.5862	1.41379	6.86487	42.0928
13.9655	1.41379	6.86487	40.7511
14.3448	1.41379	6.86487	39.2181
14.7241	1.41379	6.86487	37.2703
15.1034	1.41379	6.86487	34.2802
15.4828	1.41379	6.86487	28.715
15.8621	1.41379	6.86487	16.9736
16.2414	1.41379	6.86487	-9.55993
16.6207	1.41379	6.86487	-71.521
17	1.41379	6.86487	-inf
6	1.44828	7.70931	60.5862
6.37931	1.44828	7.70931	60.3266
6.75862	1.44828	7.70931	59.8838
7.13793	1.44828	7.70931	59.2792
7.51724	1.44828	7.70931	58.588
7.89655	1.44828	7.70931	57.8556
8.27586	1.44828	7.70931	57.0992
8.65517	1.44828	7.70931	56.3142
9.03448	1.44828	7.70931	55.477
9.41379	1.44828	7.70931	54.5592
9.7931	1.44828	7.70931	53.5551
10.1724	1.44828	7.70931	52.4862
10.5517	1.44828	7.70931	51.38
10.931	1.44828	7.70931	50.2553
11.3103	1.44828	7.70931	49.1218
11.6897	1.44828	7.70931	47.983
12.069	1.44828	7.70931	46.8391
12.4483	1.44828	7.70931	45.6874
12.8276	1.44828	7.70931	44.5214
13.2069	1.44828	7.70931	43.3285
13.5862	1.44828	7.70931	42.0843
13.9655	1.44828	7.70931	40.7426
14.3448	1.44828	7.70931	39.2096
14.7241	1.44828	7.70931	37.2618
15.1034	1.44828	7.70931	34.2717
15.4828	1.44828	7.70931	28.7065
15.8621	1.44828	7.70931	16.9651
16.2414	1.44828	7.70931	-9.56844
16.6207	1.44828	7.70931	-71.5295
17	1.44828	7.70931	-inf
6	1.48276	8.61123	60.6304
6.37931	1.48276	8.61123	60.3644
6.75862	1.48276	8.61123	59.9188
7.13793	1.48276	8.61123	59.3132
7.51724	1.48276	8.61123	58.6214
7.89655	1.48276	8.61123	57.8883
8.27586	1.48276	8.61123	57.1301
8.65517	1.48276	8.61123	56.3409
9.03448	1.48276	8.61123	55.4961
9.41379	1.48276	8.61123	54.5687
9.7931	1.48276	8.61123	53.5564
10.1724	1.48276	8.61123	52.4824
10.5517	1.48276	8.61123	51.3736
10.931	1.48276	8.61123	50.2477
11.3103	1.48276	8.61123	49.1137
11.6897	1.48276	8.61123	47.9747
12.069	1.48276	8.61123	46.8307
12.4483	1.48276	8.61123	45.679
12.8276	1.48276	8.61123	44.513
13.2069	1.48276	8.61123	43.32
13.5862	1.48276	8.61123	42.0758
13.9655	1.48276	8.61123	40.7342
14.3448	1.48276	8.61123	39.2011
14.7241	1.48276	8.61123	37.2533
15.1034	1.48276	8.61123	34.2632
15.4828	1.48276	8.61123	28.698
15.8621	1.48276	8.61123	16.9566
16.2414	1.48276	8.61123	-9.57691
16.6207	1.48276	8.61123	-71.5379
17	1.48276	8.61123	-inf
6	1.51724	9.57489	60.6724
6.37931	1.51724	9.57489	60.4009
6.75862	1.51724	9.57489	59.9527
7.13793	1.51724	9.57489	59.3461
7.51724	1.51724	9.57489	58.6537
7.89655	1.51724	9.57489	57.9198
8.27586	1.51724	9.57489	57.1597
8.65517	1.51724	9.57489	56.3662
9.03448	1.51724	9.57489	55.5136
9.41379	1.51724	9.57489	54.5769
9.7931	1.51724	9.57489	53.5569
10.1724	1.51724	9.57489	52.4782
10.5517	1.51724	9.57489	51.367
10.931	1.51724	9.57489	50.2401
11.3103	1.51724	9.57489	49.1056
11.6897	1.51724	9.57489	47.9664
12.069	1.51724	9.57489	46.8223
12.4483	1.51724	9.57489	45.6706
12.8276	1.51724	9.57489	44.5046
13.2069	1.51724	9.57489	43.3116
13.5862	1.51724	9.57489	42.0674
13.9655	1.51724	9.57489	40.7257
14.3448	1.51724	9.57489	39.1927
14.7241	1.51724	9.57489	37.2449
15.1034	1.51724	9.57489	34.2548
15.4828	1.51724	9.57489	28.6896
15.8621	1.51724	9.57489	16.9482
16.2414	1.51724	9.57489	-9.58534
16.6207	1.51724	9.57489	-71.5464
17	1.51724	9.57489	-inf
6	1.55172	10.6049	60.7126
6.37931	1.55172	10.6049	60.4361
6.75862	1.55172	10.6049	59.9857
7.13793	1.55172	10.6049	59.3782
7.51724	1.55172	10.6049	58.6852
7.89655	1.55172	10.6049	57.9505
8.27586	1.55172	10.6049	57.1883
8.65517	1.55172	10.6049	56.3901
9.03448	1.55172	10.6049	55.5297
9.41379	1.55172	10.6049	54.5839
9.7931	1.55172	10.6049	53.5566
10.1724	1.55172	10.6049	52.4736
10.5517	1.55172	10.6049	51.3603
10.931	1.55172	10.6049	50.2324
11.3103	1.55172	10.6049	49.0975
11.6897	1.55172	10.6049	47.9581
12.069	1.55172	10.6049	46.814
12.4483	1.55172	10.6049	45.6622
12.8276	1.55172	10.6049	44.4962
13.2069	1.55172	10.6049	43.3032
13.5862	1.55172	10.6049	42.059
13.9655	1.55172	10.6049	40.7174
14.3448	1.55172	10.6049	39.1843
14.7241	1.55172	10.6049	37.2365
15.1034	1.55172	10.6049	34.2464
15.4828	1.55172	10.6049	28.6812
15.8621	1.55172	10.6049	16.9398
16.2414	1.55172	10.6049	-9.59372
16.6207	1.55172	10.6049	-71.5547
17	1.55172	10.6049	-inf
6	1.58621	11.7062	60.7513
6.37931	1.58621	11.7062	60.4703
6.75862	1.58621	11.7062	60.0178
7.13793	1.58621	11.7062	59.4094
7.51724	1.58621	11.7062	58.7159
7.89655	1.58621	11.7062	57.9803
8.27586	1.58621	11.7062	57.2159
8.65517	1.58621	11.7062	56.4129
9.03448	1.58621	11.7062	55.5445
9.41379	1.58621	11.7062	54.5898
9.7931	1.58621	11.7062	53.5557
10.1724	1.58621	11.7062	52.4687
10.5517	1.58621	11.7062	51.3535
10.931	1.58621	11.7062	50.2247
11.3103	1.58621	11.7062	49.0894
11.6897	1.58621	11.7062	47.9499
12.069	1.58621	11.7062	46.8057
12.4483	1.58621	11.7062	45.6539
12.8276	1.58621	11.7062	44.4879
13.2069	1.58621	11.7062	43.2948
13.5862	1.58621	11.7062	42.0507
13.9655	1.58621	11.7062	40.709
14.3448	1.58621	11.7062	39.1759
14.7241	1.58621	11.7062	37.2281
15.1034	1.58621	11.7062	34.2381
15.4828	1.58621	11.7062	28.6728
15.8621	1.58621	11.7062	16.9314
16.2414	1.58621	11.7062	-9.60207
16.6207	1.58621	11.7062	-71.5631
17	1.58621	11.7062	-inf
6	1.62069	12.8841	60.7888
6.37931	1.62069	12.8841	60.5037
6.75862	1.62069	12.8841	60.0492
7.13793	1.62069	12.8841	59.4401
7.51724	1.62069	12.8841	58.746
7.89655	1.62069	12.8841	58.0094
8.27586	1.62069	12.8841	57.2427
8.65517	1.62069	12.8841	56.4346
9.03448	1.62069	12.8841	55.5582
9.41379	1.62069	12.8841	54.5948
9.7931	1.62069	12.8841	53.5543
10.1724	1.62069	12.8841	52.4636
10.5517	1.62069	12.8841	51.3466
10.931	1.62069	12.8841	50.217
11.3103	1.62069	12.8841	49.0814
11.6897	1.62069	12.8841	47.9417
12.069	1.62069	12.8841	46.7974
12.4483	1.62069	12.8841	45.6456
12.8276	1.62069	12.8841	44.4796
13.2069	1.62069	12.8841	43.2865
13.5862	1.62069	12.8841	42.0424
13.9655	1.62069	12.8841	40.7007
14.3448	1.62069	12.8841	39.1676
14.7241	1.62069	12.8841	37.2198
15.1034	1.62069	12.8841	34.2298
15.4828	1.62069	12.8841	28.6645
15.8621	1.62069	12.8841	16.9231
16.2414	1.62069	12.8841	-9.61038
16.6207	1.62069	12.8841	-71.5714
17	1.62069	12.8841	-inf
6	1.65517	14.1443	60.825
6.37931	1.65517	14.1443	60.5362
6.75862	1.65517	14.1443	60.0801
7.13793	1.65517	14.1443	59.4702
7.51724	1.65517	14.1443	58.7756
7.89655	1.65517	14.1443	58.0379
8.27586	1.65517	14.1443	57.2687
8.65517	1.65517	14.1443	56.4552
9.03448	1.65517	14.1443	55.5707
9.41379	1.65517	14.1443	54.599
9.7931	1.65517	14.1443	53.5523
10.1724	1.65517	14.1443	52.4582
10.5517	1.65517	14.1443	51.3395
10.931	1.65517	14.1443	50.2093
11.3103	1.65517	14.1443	49.0733
11.6897	1.65517	14.1443	47.9335
12.069	1.65517	14.1443	46.7892
12.4483	1.65517	14.1443	45.6373
12.8276	1.65517	14.1443	44.4713
13.2069	1.65517	14.1443	43.2783
13.5862	1.65517	14.1443	42.0341
13.9655	1.65517	14.1443	40.6924
14.3448	1.65517	14.1443	39.1594
14.7241	1.65517	14.1443	37.2116
15.1034	1.65517	14.1443	34.2215
15.4828	1.65517	14.1443	28.6563
15.8621	1.65517	14.1443	16.9149
16.2414	1.65517	14.1443	-9.61865
16.6207	1.65517	14.1443	-71.5797
17	1.65517	14.1443	-inf
6	1.68966	15.4929	60.8604
6.37931	1.68966	15.4929	60.5682
6.75862	1.68966	15.4929	60.1104
7.13793	1.68966	15.4929	59.4998
7.51724	1.68966	15.4929	58.8046
7.89655	1.68966	15.4929	58.0658
8.27586	1.68966	15.4929	57.2939
8.65517	1.68966	15.4929	56.4749
9.03448	1.68966	15.4929	55.5822
9.41379	1.68966	15.4929	54.6023
9.7931	1.68966	15.4929	53.5499
10.1724	1.68966	15.4929	52.4526
10.5517	1.68966	15.4929	51.3325
10.931	1.68966	15.4929	50.2016
11.3103	1.68966	15.4929	49.0653
11.6897	1.68966	15.4929	47.9253
12.069	1.68966	15.4929	46.781
12.4483	1.68966	15.4929	45.6291
12.8276	1.68966	15.4929	44.4631
13.2069	1.68966	15.4929	43.27
13.5862	1.68966	15.4929	42.0259
13.9655	1.68966	15.4929	40.6842
14.3448	1.68966	15.4929	39.1511
14.7241	1.68966	15.4929	37.2033
15.1034	1.68966	15.4929	34.2133
15.4828	1.68966	15.4929	28.648
15.8621	1.68966	15.4929	16.9066
16.2414	1.68966	15.4929	-9.62688
16.6207	1.68966	15.4929	-71.5879
17	1.68966	15.4929	-inf
6	1.72414	16.9365	60.8949
6.37931	1.72414	16.9365	60.5996
6.75862	1.72414	16.9365	60.1403
7.13793	1.72414	16.9365	59.529
7.51724	1.72414	16.9365	58.8332
7.89655	1.72414	16.9365	58.0932
8.27586	1.72414	16.9365	57.3183
8.65517	1.72414	16.9365	56.4936
9.03448	1.72414	16.9365	55.5928
9.41379	1.72414	16.9365	54.6049
9.7931	1.72414	16.9365	53.547
10.1724	1.72414	16.9365	52.4468
10.5517	1.72414	16.9365	51.3253
10.931	1.72414	16.9365	50.1938
11.3103	1.72414	16.9365	49.0573
11.6897	1.72414	16.9365	47.9172
12.069	1.72414	16.9365	46.7728
12.4483	1.72414	16.9365	45.6209
12.8276	1.72414	16.9365	44.4549
13.2069	1.72414	16.9365	43.2619
13.5862	1.72414	16.9365	42.0177
13.9655	1.72414	16.9365	40.676
14.3448	1.72414	16.9365	39.1429
14.7241	1.72414	16.9365	37.1951
15.1034	1.72414	16.9365	34.2051
15.4828	1.72414	16.9365	28.6398
15.8621	1.72414	16.9365	16.8984
16.2414	1.72414	16.9365	-9.63507
16.6207	1.72414	16.9365	-71.5961
17	1.72414	16.9365	-inf
6	1.75862	18.4821	60.9287
6.37931	1.75862	18.4821	60.6305
6.75862	1.75862	18.4821	60.1698
7.13793	1.75862	18.4821	59.5579
7.51724	1.75862	18.4821	58.8615
7.89655	1.75862	18.4821	58.1201
8.27586	1.75862	18.4821	57.3421
8.65517	1.75862	18.4821	56.5114
9.03448	1.75862	18.4821	55.6024
9.41379	1.75862	18.4821	54.6069
9.7931	1.75862	18.4821	53.5438
10.1724	1.75862	18.4821	52.4409
10.5517	1.75862	18.4821	51.3181
10.931	1.75862	18.4821	50.1861
11.3103	1.75862	18.4821	49.0493
11.6897	1.75862	18.4821	47.9092
12.069	1.75862	18.4821	46.7647
12.4483	1.75862	18.4821	45.6128
12.8276	1.75862	18.4821	44.4467
13.2069	1.75862	18.4821	43.2537
13.5862	1.75862	18.4821	42.0095
13.9655	1.75862	18.4821	40.6679
14.3448	1.75862	18.4821	39.1348
14.7241	1.75862	18.4821	37.187
15.1034	1.75862	18.4821	34.1969
15.4828	1.75862	18.4821	28.6317
15.8621	1.75862	18.4821	16.8903
16.2414	1.75862	18.4821	-9.64322
16.6207	1.75862	18.4821	-71.6042
17	1.75862	18.4821	-inf
6	1.7931	20.1374	60.9619
6.37931	1.7931	20.1374	60.661
6.75862	1.7931	20.1374	60.199
7.13793	1.7931	20.1374	59.5864
7.51724	1.7931	20.1374	58.8893
7.89655	1.7931	20.1374	58.1466
8.27586	1.7931	20.1374	57.3653
8.65517	1.7931	20.1374	56.5284
9.03448	1.7931	20.1374	55.6111
9.41379	1.7931	20.1374	54.6082
9.7931	1.7931	20.1374	53.5403
10.1724	1.7931	20.1374	52.4349
10.5517	1.7931	20.1374	51.3109
10.931	1.7931	20.1374	50.1783
11.3103	1.7931	20.1374	49.0413
11.6897	1.7931	20.1374	47.9011
12.069	1.7931	20.1374	46.7566
12.4483	1.7931	20.1374	45.6047
12.8276	1.7931	20.1374	44.4386
13.2069	1.7931	20.1374	43.2456
13.5862	1.7931	20.1374	42.0014
13.9655	1.7931	20.1374	40.6597
14.3448	1.7931	20.1374	39.1267
14.7241	1.7931	20.1374	37.1789
15.1034	1.7931	20.1374	34.1888
15.4828	1.7931	20.1374	28.6236
15.8621	1.7931	20.1374	16.8822
16.2414	1.7931	20.1374	-9.65134
16.6207	1.7931	20.1374	-71.6124
17	1.7931	20.1374	-inf
6	1.82759	21.9104	60.9945
6.37931	1.82759	21.9104	60.6911
6.75862	1.82759	21.9104	60.2279
7.13793	1.82759	21.9104	59.6147
7.51724	1.82759	21.9104	58.9169
7.89655	1.82759	21.9104	58.1726
8.27586	1.82759	21.9104	57.3878
8.65517	1.82759	21.9104	56.5445
9.03448	1.82759	21.9104	55.619
9.41379	1.82759	21.9104	54.6089
9.7931	1.82759	21.9104	53.5364
10.1724	1.82759	21.9104	52.4287
10.5517	1.82759	21.9104	51.3036
10.931	1.82759	21.9104	50.1706
11.3103	1.82759	21.9104	49.0334
11.6897	1.82759	21.9104	47.8931
12.069	1.82759	21.9104	46.7486
12.4483	1.82759	21.9104	45.5966
12.8276	1.82759	21.9104	44.4305
13.2069	1.82759	21.9104	43.2375
13.5862	1.82759	21.9104	41.9933
13.9655	1.82759	21.9104	40.6517
14.3448	1.82759	21.9104	39.1186
14.7241	1.82759	21.9104	37.1708
15.1034	1.82759	21.9104	34.1807
15.4828	1.82759	21.9104	28.6155
15.8621	1.82759	21.9104	16.8741
16.2414	1.82759	21.9104	-9.65942
16.6207	1.82759	21.9104	-71.6204
17	1.82759	21.9104	-inf
6	1.86207	23.8099	61.0266
6.37931	1.86207	23.8099	60.7209
6.75862	1.86207	23.8099	60.2565
7.13793	1.86207	23.8099	59.6427
7.51724	1.86207	23.8099	58.9442
7.89655	1.86207	23.8099	58.1982
8.27586	1.86207	23.8099	57.4097
8.65517	1.86207	23.8099	56.5598
9.03448	1.86207	23.8099	55.6261
9.41379	1.86207	23.8099	54.609
9.7931	1.86207	23.8099	53.5323
10.1724	1.86207	23.8099	52.4224
10.5517	1.86207	23.8099	51.2963
10.931	1.86207	23.8099	50.1629
11.3103	1.86207	23.8099	49.0255
11.6897	1.86207	23.8099	47.8851
12.069	1.86207	23.8099	46.7405
12.4483	1.86207	23.8099	45.5886
12.8276	1.86207	23.8099	44.4225
13.2069	1.86207	23.8099	43.2295
13.5862	1.86207	23.8099	41.9853
13.9655	1.86207	23.8099	40.6436
14.3448	1.86207	23.8099	39.1105
14.7241	1.86207	23.8099	37.1628
15.1034	1.86207	23.8099	34.1727
15.4828	1.86207	23.8099	28.6074
15.8621	1.86207	23.8099	16.8661
16.2414	1.86207	23.8099	-9.66746
16.6207	1.86207	23.8099	-71.6285
17	1.86207	23.8099	-inf
6	1.89655	25.8454	61.0584
6.37931	1.89655	25.8454	60.7505
6.75862	1.89655	25.8454	60.285
7.13793	1.89655	25.8454	59.6705
7.51724	1.89655	25.8454	58.9712
7.89655	1.89655	25.8454	58.2234
8.27586	1.89655	25.8454	57.4309
8.65517	1.89655	25.8454	56.5742
9.03448	1.89655	25.8454	55.6324
9.41379	1.89655	25.8454	54.6087
9.7931	1.89655	25.8454	53.5279
10.1724	1.89655	25.8454	52.416
10.5517	1.89655	25.8454	51.289
10.931	1.89655	25.8454	50.1551
11.3103	1.89655	25.8454	49.0176
11.6897	1.89655	25.8454	47.8771
12.069	1.89655	25.8454	46.7326
12.4483	1.89655	25.8454	45.5806
12.8276	1.89655	25.8454	44.4145
13.2069	1.89655	25.8454	43.2215
13.5862	1.89655	25.8454	41.9773
13.9655	1.89655	25.8454	40.6356
14.3448	1.89655	25.8454	39.1025
14.7241	1.89655	25.8454	37.1547
15.1034	1.89655	25.8454	34.1647
15.4828	1.89655	25.8454	28.5994
15.8621	1.89655	25.8454	16.858
16.2414	1.89655	25.8454	-9.67546
16.6207	1.89655	25.8454	-71.6365
17	1.89655	25.8454	-inf
6	1.93103	28.0269	61.0897
6.37931	1.93103	28.0269	60.7798
6.75862	1.93103	28.0269	60.3132
7.13793	1.93103	28.0269	59.6981
7.51724	1.93103	28.0269	58.9979
7.89655	1.93103	28.0269	58.2482
8.27586	1.93103	28.0269	57.4515
8.65517	1.93103	28.0269	56.5878
9.03448	1.93103	28.0269	55.638
9.41379	1.93103	28.0269	54.6079
9.7931	1.93103	28.0269	53.5233
10.1724	1.93103	28.0269	52.4095
10.5517	1.93103	28.0269	51.2817
10.931	1.93103	28.0269	50.1474
11.3103	1.93103	28.0269	49.0098
11.6897	1.93103	28.0269	47.8692
12.069	1.93103	28.0269	46.7246
12.4483	1.93103	28.0269	45.5726
12.8276	1.93103	28.0269	44.4065
13.2069	1.93103	28.0269	43.2135
13.5862	1.93103	28.0269	41.9693
13.9655	1.93103	28.0269	40.6276
14.3448	1.93103	28.0269	39.0946
14.7241	1.93103	28.0269	37.1468
15.1034	1.93103	28.0269	34.1567
15.4828	1.93103	28.0269	28.5915
15.8621	1.93103	28.0269	16.8501
16.2414	1.93103	28.0269	-9.68343
16.6207	1.93103	28.0269	-71.6445
17	1.93103	28.0269	-inf
6	1.96552	30.3653	61.1207
6.37931	1.96552	30.3653	60.8088
6.75862	1.96552	30.3653	60.3412
7.13793	1.96552	30.3653	59.7255
7.51724	1.96552	30.3653	59.0244
7.89655	1.96552	30.3653	58.2726
8.27586	1.96552	30.3653	57.4715
8.65517	1.96552	30.3653	56.6007
9.03448	1.96552	30.3653	55.6429
9.41379	1.96552	30.3653	54.6066
9.7931	1.96552	30.3653	53.5185
10.1724	1.96552	30.3653	52.4029
10.5517	1.96552	30.3653	51.2743
10.931	1.96552	30.3653	50.1398
11.3103	1.96552	30.3653	49.0019
11.6897	1.96552	30.3653	47.8613
12.069	1.96552	30.3653	46.7167
12.4483	1.96552	30.3653	45.5647
12.8276	1.96552	30.3653	44.3986
13.2069	1.96552	30.3653	43.2056
13.5862	1.96552	30.3653	41.9614
13.9655	1.96552	30.3653	40.6197
14.3448	1.96552	30.3653	39.0866
14.7241	1.96552	30.3653	37.1388
15.1034	1.96552	30.3653	34.1488
15.4828	1.96552	30.3653	28.5835
15.8621	1.96552	30.3653	16.8421
16.2414	1.96552	30.3653	-9.69137
16.6207	1.96552	30.3653	-71.6524
17	1.96552	30.3653	-inf
6	2	32.8722	-inf
6.37931	2	32.8722	-inf
6.75862	2	32.8722	-inf
7.13793	2	32.8722	-inf
7.51724	2	32.8722	-inf
7.89655	2	32.8722	-inf
8.27586	2	32.8722	-inf
8.65517	2	32.8722	-inf
9.03448	2	32.8722	-inf
9.41379	2	32.8722	-inf
9.7931	2	32.8722	-inf
10.1724	2	32.8722	-inf
10.5517	2	32.8722	-inf
10.931	2	32.8722	-inf
11.3103	2	32.8722	-inf
11.6897	2	32.8722	-inf
12.069	2	32.8722	-inf
12.4483	2	32.8722	-inf
12.8276	2	32.8722	-inf
13.2069	2	32.8722	-inf
13.5862	2	32.8722	-inf
13.9655	2	32.8722	-inf
14.3448	2	32.8722	-inf
14.7241	2	32.8722	-inf
15.1034	2	32.8722	-inf
15.4828	2	32.8722	-inf
15.8621	2	32.8722	-inf
16.2414	2	32.8722	-inf
16.6207	2	32.8722	-inf
17	2	32.8722	-inf
