log(E / eV)	log(z / pc)	t / yr	 logQ
6	1	0	49.7924
6.37931	1	0	50.2986
6.75862	1	0	50.0681
7.13793	1	0	49.53
7.51724	1	0	48.8634
7.89655	1	0	48.1432
8.27586	1	0	47.4007
8.65517	1	0	46.6488
9.03448	1	0	45.8929
9.41379	1	0	45.1355
9.7931	1	0	44.3773
10.1724	1	0	43.6189
10.5517	1	0	42.8603
10.931	1	0	42.1016
11.3103	1	0	41.3427
11.6897	1	0	40.5834
12.069	1	0	39.823
12.4483	1	0	39.0603
12.8276	1	0	38.2919
13.2069	1	0	37.5098
13.5862	1	0	36.695
13.9655	1	0	35.8019
14.3448	1	0	34.721
14.7241	1	0	33.1905
15.1034	1	0	30.5834
15.4828	1	0	25.3975
15.8621	1	0	14.0354
16.2414	1	0	-12.1188
16.6207	1	0	-73.7005
17	1	0	-220.132
6	1.03448	0.40007	49.3773
6.37931	1.03448	0.40007	49.8835
6.75862	1.03448	0.40007	49.653
7.13793	1.03448	0.40007	49.1149
7.51724	1.03448	0.40007	48.4483
7.89655	1.03448	0.40007	47.7282
8.27586	1.03448	0.40007	46.9856
8.65517	1.03448	0.40007	46.2337
9.03448	1.03448	0.40007	45.4778
9.41379	1.03448	0.40007	44.7204
9.7931	1.03448	0.40007	43.9622
10.1724	1.03448	0.40007	43.2038
10.5517	1.03448	0.40007	42.4452
10.931	1.03448	0.40007	41.6865
11.3103	1.03448	0.40007	40.9276
11.6897	1.03448	0.40007	40.1683
12.069	1.03448	0.40007	39.4079
12.4483	1.03448	0.40007	38.6452
12.8276	1.03448	0.40007	37.8768
13.2069	1.03448	0.40007	37.0947
13.5862	1.03448	0.40007	36.2799
13.9655	1.03448	0.40007	35.3868
14.3448	1.03448	0.40007	34.3059
14.7241	1.03448	0.40007	32.7754
15.1034	1.03448	0.40007	30.1683
15.4828	1.03448	0.40007	24.9824
15.8621	1.03448	0.40007	13.6203
16.2414	1.03448	0.40007	-12.5339
16.6207	1.03448	0.40007	-74.1156
17	1.03448	0.40007	-220.547
6	1.06897	0.824155	49.7309
6.37931	1.06897	0.824155	50.2371
6.75862	1.06897	0.824155	50.0066
7.13793	1.06897	0.824155	49.4685
7.51724	1.06897	0.824155	48.8019
7.89655	1.06897	0.824155	48.0818
8.27586	1.06897	0.824155	47.3392
8.65517	1.06897	0.824155	46.5873
9.03448	1.06897	0.824155	45.8314
9.41379	1.06897	0.824155	45.074
9.7931	1.06897	0.824155	44.3158
10.1724	1.06897	0.824155	43.5574
10.5517	1.06897	0.824155	42.7988
10.931	1.06897	0.824155	42.0401
11.3103	1.06897	0.824155	41.2812
11.6897	1.06897	0.824155	40.5219
12.069	1.06897	0.824155	39.7615
12.4483	1.06897	0.824155	38.9988
12.8276	1.06897	0.824155	38.2304
13.2069	1.06897	0.824155	37.4483
13.5862	1.06897	0.824155	36.6335
13.9655	1.06897	0.824155	35.7404
14.3448	1.06897	0.824155	34.6595
14.7241	1.06897	0.824155	33.129
15.1034	1.06897	0.824155	30.5219
15.4828	1.06897	0.824155	25.336
15.8621	1.06897	0.824155	13.9739
16.2414	1.06897	0.824155	-12.1803
16.6207	1.06897	0.824155	-73.762
17	1.06897	0.824155	-220.194
6	1.10345	1.27409	49.9575
6.37931	1.10345	1.27409	50.4637
6.75862	1.10345	1.27409	50.2332
7.13793	1.10345	1.27409	49.6951
7.51724	1.10345	1.27409	49.0285
7.89655	1.10345	1.27409	48.3083
8.27586	1.10345	1.27409	47.5658
8.65517	1.10345	1.27409	46.8139
9.03448	1.10345	1.27409	46.058
9.41379	1.10345	1.27409	45.3006
9.7931	1.10345	1.27409	44.5424
10.1724	1.10345	1.27409	43.784
10.5517	1.10345	1.27409	43.0254
10.931	1.10345	1.27409	42.2667
11.3103	1.10345	1.27409	41.5078
11.6897	1.10345	1.27409	40.7485
12.069	1.10345	1.27409	39.9881
12.4483	1.10345	1.27409	39.2254
12.8276	1.10345	1.27409	38.457
13.2069	1.10345	1.27409	37.6749
13.5862	1.10345	1.27409	36.8601
13.9655	1.10345	1.27409	35.967
14.3448	1.10345	1.27409	34.8861
14.7241	1.10345	1.27409	33.3556
15.1034	1.10345	1.27409	30.7485
15.4828	1.10345	1.27409	25.5626
15.8621	1.10345	1.27409	14.2005
16.2414	1.10345	1.27409	-11.9537
16.6207	1.10345	1.27409	-73.5354
17	1.10345	1.27409	-219.967
6	1.13793	1.75186	50.119
6.37931	1.13793	1.75186	50.6252
6.75862	1.13793	1.75186	50.3947
7.13793	1.13793	1.75186	49.8565
7.51724	1.13793	1.75186	49.19
7.89655	1.13793	1.75186	48.4698
8.27586	1.13793	1.75186	47.7272
8.65517	1.13793	1.75186	46.9753
9.03448	1.13793	1.75186	46.2195
9.41379	1.13793	1.75186	45.462
9.7931	1.13793	1.75186	44.7039
10.1724	1.13793	1.75186	43.9455
10.5517	1.13793	1.75186	43.1869
10.931	1.13793	1.75186	42.4282
11.3103	1.13793	1.75186	41.6693
11.6897	1.13793	1.75186	40.9099
12.069	1.13793	1.75186	40.1496
12.4483	1.13793	1.75186	39.3869
12.8276	1.13793	1.75186	38.6185
13.2069	1.13793	1.75186	37.8364
13.5862	1.13793	1.75186	37.0216
13.9655	1.13793	1.75186	36.1284
14.3448	1.13793	1.75186	35.0475
14.7241	1.13793	1.75186	33.5171
15.1034	1.13793	1.75186	30.91
15.4828	1.13793	1.75186	25.724
15.8621	1.13793	1.75186	14.362
16.2414	1.13793	1.75186	-11.7922
16.6207	1.13793	1.75186	-73.374
17	1.13793	1.75186	-219.805
6	1.17241	2.25957	50.2409
6.37931	1.17241	2.25957	50.747
6.75862	1.17241	2.25957	50.5165
7.13793	1.17241	2.25957	49.9784
7.51724	1.17241	2.25957	49.3118
7.89655	1.17241	2.25957	48.5917
8.27586	1.17241	2.25957	47.8491
8.65517	1.17241	2.25957	47.0972
9.03448	1.17241	2.25957	46.3413
9.41379	1.17241	2.25957	45.5839
9.7931	1.17241	2.25957	44.8258
10.1724	1.17241	2.25957	44.0673
10.5517	1.17241	2.25957	43.3087
10.931	1.17241	2.25957	42.55
11.3103	1.17241	2.25957	41.7911
11.6897	1.17241	2.25957	41.0318
12.069	1.17241	2.25957	40.2715
12.4483	1.17241	2.25957	39.5087
12.8276	1.17241	2.25957	38.7403
13.2069	1.17241	2.25957	37.9583
13.5862	1.17241	2.25957	37.1435
13.9655	1.17241	2.25957	36.2503
14.3448	1.17241	2.25957	35.1694
14.7241	1.17241	2.25957	33.639
15.1034	1.17241	2.25957	31.0318
15.4828	1.17241	2.25957	25.8459
15.8621	1.17241	2.25957	14.4838
16.2414	1.17241	2.25957	-11.6704
16.6207	1.17241	2.25957	-73.2521
17	1.17241	2.25957	-219.684
6	1.2069	2.79949	50.3361
6.37931	1.2069	2.79949	50.8423
6.75862	1.2069	2.79949	50.6118
7.13793	1.2069	2.79949	50.0737
7.51724	1.2069	2.79949	49.4071
7.89655	1.2069	2.79949	48.6869
8.27586	1.2069	2.79949	47.9444
8.65517	1.2069	2.79949	47.1925
9.03448	1.2069	2.79949	46.4366
9.41379	1.2069	2.79949	45.6792
9.7931	1.2069	2.79949	44.921
10.1724	1.2069	2.79949	44.1626
10.5517	1.2069	2.79949	43.404
10.931	1.2069	2.79949	42.6453
11.3103	1.2069	2.79949	41.8864
11.6897	1.2069	2.79949	41.1271
12.069	1.2069	2.79949	40.3667
12.4483	1.2069	2.79949	39.604
12.8276	1.2069	2.79949	38.8356
13.2069	1.2069	2.79949	38.0535
13.5862	1.2069	2.79949	37.2387
13.9655	1.2069	2.79949	36.3456
14.3448	1.2069	2.79949	35.2647
14.7241	1.2069	2.79949	33.7342
15.1034	1.2069	2.79949	31.1271
15.4828	1.2069	2.79949	25.9412
15.8621	1.2069	2.79949	14.5791
16.2414	1.2069	2.79949	-11.5751
16.6207	1.2069	2.79949	-73.1568
17	1.2069	2.79949	-219.588
6	1.24138	3.37405	50.3398
6.37931	1.24138	3.37405	50.846
6.75862	1.24138	3.37405	50.6155
7.13793	1.24138	3.37405	50.0774
7.51724	1.24138	3.37405	49.4108
7.89655	1.24138	3.37405	48.6907
8.27586	1.24138	3.37405	47.9481
8.65517	1.24138	3.37405	47.1962
9.03448	1.24138	3.37405	46.4403
9.41379	1.24138	3.37405	45.6829
9.7931	1.24138	3.37405	44.9247
10.1724	1.24138	3.37405	44.1663
10.5517	1.24138	3.37405	43.4077
10.931	1.24138	3.37405	42.649
11.3103	1.24138	3.37405	41.8901
11.6897	1.24138	3.37405	41.1308
12.069	1.24138	3.37405	40.3705
12.4483	1.24138	3.37405	39.6077
12.8276	1.24138	3.37405	38.8393
13.2069	1.24138	3.37405	38.0573
13.5862	1.24138	3.37405	37.2425
13.9655	1.24138	3.37405	36.3493
14.3448	1.24138	3.37405	35.2684
14.7241	1.24138	3.37405	33.738
15.1034	1.24138	3.37405	31.1308
15.4828	1.24138	3.37405	25.9449
15.8621	1.24138	3.37405	14.5828
16.2414	1.24138	3.37405	-11.5714
16.6207	1.24138	3.37405	-73.1531
17	1.24138	3.37405	-219.585
6	1.27586	3.98586	50.3311
6.37931	1.27586	3.98586	50.8373
6.75862	1.27586	3.98586	50.6068
7.13793	1.27586	3.98586	50.0687
7.51724	1.27586	3.98586	49.4021
7.89655	1.27586	3.98586	48.6819
8.27586	1.27586	3.98586	47.9394
8.65517	1.27586	3.98586	47.1874
9.03448	1.27586	3.98586	46.4316
9.41379	1.27586	3.98586	45.6742
9.7931	1.27586	3.98586	44.916
10.1724	1.27586	3.98586	44.1576
10.5517	1.27586	3.98586	43.399
10.931	1.27586	3.98586	42.6403
11.3103	1.27586	3.98586	41.8814
11.6897	1.27586	3.98586	41.1221
12.069	1.27586	3.98586	40.3617
12.4483	1.27586	3.98586	39.599
12.8276	1.27586	3.98586	38.8306
13.2069	1.27586	3.98586	38.0485
13.5862	1.27586	3.98586	37.2337
13.9655	1.27586	3.98586	36.3406
14.3448	1.27586	3.98586	35.2597
14.7241	1.27586	3.98586	33.7292
15.1034	1.27586	3.98586	31.1221
15.4828	1.27586	3.98586	25.9362
15.8621	1.27586	3.98586	14.5741
16.2414	1.27586	3.98586	-11.5801
16.6207	1.27586	3.98586	-73.1618
17	1.27586	3.98586	-219.593
6	1.31034	4.63773	50.3224
6.37931	1.31034	4.63773	50.8286
6.75862	1.31034	4.63773	50.5981
7.13793	1.31034	4.63773	50.06
7.51724	1.31034	4.63773	49.3934
7.89655	1.31034	4.63773	48.6733
8.27586	1.31034	4.63773	47.9307
8.65517	1.31034	4.63773	47.1788
9.03448	1.31034	4.63773	46.4229
9.41379	1.31034	4.63773	45.6655
9.7931	1.31034	4.63773	44.9073
10.1724	1.31034	4.63773	44.1489
10.5517	1.31034	4.63773	43.3903
10.931	1.31034	4.63773	42.6316
11.3103	1.31034	4.63773	41.8727
11.6897	1.31034	4.63773	41.1134
12.069	1.31034	4.63773	40.3531
12.4483	1.31034	4.63773	39.5903
12.8276	1.31034	4.63773	38.8219
13.2069	1.31034	4.63773	38.0399
13.5862	1.31034	4.63773	37.2251
13.9655	1.31034	4.63773	36.3319
14.3448	1.31034	4.63773	35.251
14.7241	1.31034	4.63773	33.7206
15.1034	1.31034	4.63773	31.1134
15.4828	1.31034	4.63773	25.9275
15.8621	1.31034	4.63773	14.5654
16.2414	1.31034	4.63773	-11.5888
16.6207	1.31034	4.63773	-73.1705
17	1.31034	4.63773	-219.602
6	1.34483	5.33267	50.3138
6.37931	1.34483	5.33267	50.82
6.75862	1.34483	5.33267	50.5895
7.13793	1.34483	5.33267	50.0514
7.51724	1.34483	5.33267	49.3848
7.89655	1.34483	5.33267	48.6646
8.27586	1.34483	5.33267	47.9221
8.65517	1.34483	5.33267	47.1701
9.03448	1.34483	5.33267	46.4143
9.41379	1.34483	5.33267	45.6569
9.7931	1.34483	5.33267	44.8987
10.1724	1.34483	5.33267	44.1403
10.5517	1.34483	5.33267	43.3817
10.931	1.34483	5.33267	42.623
11.3103	1.34483	5.33267	41.8641
11.6897	1.34483	5.33267	41.1047
12.069	1.34483	5.33267	40.3444
12.4483	1.34483	5.33267	39.5817
12.8276	1.34483	5.33267	38.8133
13.2069	1.34483	5.33267	38.0312
13.5862	1.34483	5.33267	37.2164
13.9655	1.34483	5.33267	36.3232
14.3448	1.34483	5.33267	35.2424
14.7241	1.34483	5.33267	33.7119
15.1034	1.34483	5.33267	31.1048
15.4828	1.34483	5.33267	25.9189
15.8621	1.34483	5.33267	14.5568
16.2414	1.34483	5.33267	-11.5974
16.6207	1.34483	5.33267	-73.1791
17	1.34483	5.33267	-219.611
6	1.37931	6.07389	50.3052
6.37931	1.37931	6.07389	50.8114
6.75862	1.37931	6.07389	50.5809
7.13793	1.37931	6.07389	50.0428
7.51724	1.37931	6.07389	49.3762
7.89655	1.37931	6.07389	48.656
8.27586	1.37931	6.07389	47.9135
8.65517	1.37931	6.07389	47.1615
9.03448	1.37931	6.07389	46.4057
9.41379	1.37931	6.07389	45.6483
9.7931	1.37931	6.07389	44.8901
10.1724	1.37931	6.07389	44.1317
10.5517	1.37931	6.07389	43.3731
10.931	1.37931	6.07389	42.6144
11.3103	1.37931	6.07389	41.8555
11.6897	1.37931	6.07389	41.0962
12.069	1.37931	6.07389	40.3358
12.4483	1.37931	6.07389	39.5731
12.8276	1.37931	6.07389	38.8047
13.2069	1.37931	6.07389	38.0226
13.5862	1.37931	6.07389	37.2078
13.9655	1.37931	6.07389	36.3147
14.3448	1.37931	6.07389	35.2338
14.7241	1.37931	6.07389	33.7033
15.1034	1.37931	6.07389	31.0962
15.4828	1.37931	6.07389	25.9103
15.8621	1.37931	6.07389	14.5482
16.2414	1.37931	6.07389	-11.606
16.6207	1.37931	6.07389	-73.1877
17	1.37931	6.07389	-219.619
6	1.41379	6.86487	50.2967
6.37931	1.41379	6.86487	50.8029
6.75862	1.41379	6.86487	50.5723
7.13793	1.41379	6.86487	50.0342
7.51724	1.41379	6.86487	49.3677
7.89655	1.41379	6.86487	48.6475
8.27586	1.41379	6.86487	47.9049
8.65517	1.41379	6.86487	47.153
9.03448	1.41379	6.86487	46.3972
9.41379	1.41379	6.86487	45.6397
9.7931	1.41379	6.86487	44.8816
10.1724	1.41379	6.86487	44.1231
10.5517	1.41379	6.86487	43.3645
10.931	1.41379	6.86487	42.6058
11.3103	1.41379	6.86487	41.8469
11.6897	1.41379	6.86487	41.0876
12.069	1.41379	6.86487	40.3273
12.4483	1.41379	6.86487	39.5646
12.8276	1.41379	6.86487	38.7962
13.2069	1.41379	6.86487	38.0141
13.5862	1.41379	6.86487	37.1993
13.9655	1.41379	6.86487	36.3061
14.3448	1.41379	6.86487	35.2252
14.7241	1.41379	6.86487	33.6948
15.1034	1.41379	6.86487	31.0876
15.4828	1.41379	6.86487	25.9017
15.8621	1.41379	6.86487	14.5396
16.2414	1.41379	6.86487	-11.6146
16.6207	1.41379	6.86487	-73.1963
17	1.41379	6.86487	-219.628
6	1.44828	7.70931	50.2882
6.37931	1.44828	7.70931	50.7944
6.75862	1.44828	7.70931	50.5638
7.13793	1.44828	7.70931	50.0257
7.51724	1.44828	7.70931	49.3592
7.89655	1.44828	7.70931	48.639
8.27586	1.44828	7.70931	47.8964
8.65517	1.44828	7.70931	47.1445
9.03448	1.44828	7.70931	46.3887
9.41379	1.44828	7.70931	45.6312
9.7931	1.44828	7.70931	44.8731
10.1724	1.44828	7.70931	44.1146
10.5517	1.44828	7.70931	43.356
10.931	1.44828	7.70931	42.5973
11.3103	1.44828	7.70931	41.8384
11.6897	1.44828	7.70931	41.0791
12.069	1.44828	7.70931	40.3188
12.4483	1.44828	7.70931	39.5561
12.8276	1.44828	7.70931	38.7876
13.2069	1.44828	7.70931	38.0056
13.5862	1.44828	7.70931	37.1908
13.9655	1.44828	7.70931	36.2976
14.3448	1.44828	7.70931	35.2167
14.7241	1.44828	7.70931	33.6863
15.1034	1.44828	7.70931	31.0791
15.4828	1.44828	7.70931	25.8932
15.8621	1.44828	7.70931	14.5311
16.2414	1.44828	7.70931	-11.6231
16.6207	1.44828	7.70931	-73.2048
17	1.44828	7.70931	-219.636
6	1.48276	8.61123	50.2797
6.37931	1.48276	8.61123	50.7859
6.75862	1.48276	8.61123	50.5554
7.13793	1.48276	8.61123	50.0172
7.51724	1.48276	8.61123	49.3507
7.89655	1.48276	8.61123	48.6305
8.27586	1.48276	8.61123	47.8879
8.65517	1.48276	8.61123	47.136
9.03448	1.48276	8.61123	46.3802
9.41379	1.48276	8.61123	45.6227
9.7931	1.48276	8.61123	44.8646
10.1724	1.48276	8.61123	44.1062
10.5517	1.48276	8.61123	43.3476
10.931	1.48276	8.61123	42.5889
11.3103	1.48276	8.61123	41.83
11.6897	1.48276	8.61123	41.0706
12.069	1.48276	8.61123	40.3103
12.4483	1.48276	8.61123	39.5476
12.8276	1.48276	8.61123	38.7792
13.2069	1.48276	8.61123	37.9971
13.5862	1.48276	8.61123	37.1823
13.9655	1.48276	8.61123	36.2891
14.3448	1.48276	8.61123	35.2082
14.7241	1.48276	8.61123	33.6778
15.1034	1.48276	8.61123	31.0706
15.4828	1.48276	8.61123	25.8847
15.8621	1.48276	8.61123	14.5227
16.2414	1.48276	8.61123	-11.6315
16.6207	1.48276	8.61123	-73.2133
17	1.48276	8.61123	-219.645
6	1.51724	9.57489	50.2713
6.37931	1.51724	9.57489	50.7775
6.75862	1.51724	9.57489	50.5469
7.13793	1.51724	9.57489	50.0088
7.51724	1.51724	9.57489	49.3423
7.89655	1.51724	9.57489	48.6221
8.27586	1.51724	9.57489	47.8795
8.65517	1.51724	9.57489	47.1276
9.03448	1.51724	9.57489	46.3718
9.41379	1.51724	9.57489	45.6143
9.7931	1.51724	9.57489	44.8562
10.1724	1.51724	9.57489	44.0977
10.5517	1.51724	9.57489	43.3391
10.931	1.51724	9.57489	42.5804
11.3103	1.51724	9.57489	41.8215
11.6897	1.51724	9.57489	41.0622
12.069	1.51724	9.57489	40.3019
12.4483	1.51724	9.57489	39.5392
12.8276	1.51724	9.57489	38.7707
13.2069	1.51724	9.57489	37.9887
13.5862	1.51724	9.57489	37.1739
13.9655	1.51724	9.57489	36.2807
14.3448	1.51724	9.57489	35.1998
14.7241	1.51724	9.57489	33.6694
15.1034	1.51724	9.57489	31.0622
15.4828	1.51724	9.57489	25.8763
15.8621	1.51724	9.57489	14.5142
16.2414	1.51724	9.57489	-11.64
16.6207	1.51724	9.57489	-73.2217
17	1.51724	9.57489	-219.653
6	1.55172	10.6049	50.2629
6.37931	1.55172	10.6049	50.7691
6.75862	1.55172	10.6049	50.5385
7.13793	1.55172	10.6049	50.0004
7.51724	1.55172	10.6049	49.3339
7.89655	1.55172	10.6049	48.6137
8.27586	1.55172	10.6049	47.8711
8.65517	1.55172	10.6049	47.1192
9.03448	1.55172	10.6049	46.3634
9.41379	1.55172	10.6049	45.6059
9.7931	1.55172	10.6049	44.8478
10.1724	1.55172	10.6049	44.0893
10.5517	1.55172	10.6049	43.3307
10.931	1.55172	10.6049	42.572
11.3103	1.55172	10.6049	41.8131
11.6897	1.55172	10.6049	41.0538
12.069	1.55172	10.6049	40.2935
12.4483	1.55172	10.6049	39.5308
12.8276	1.55172	10.6049	38.7624
13.2069	1.55172	10.6049	37.9803
13.5862	1.55172	10.6049	37.1655
13.9655	1.55172	10.6049	36.2723
14.3448	1.55172	10.6049	35.1914
14.7241	1.55172	10.6049	33.661
15.1034	1.55172	10.6049	31.0538
15.4828	1.55172	10.6049	25.8679
15.8621	1.55172	10.6049	14.5058
16.2414	1.55172	10.6049	-11.6484
16.6207	1.55172	10.6049	-73.2301
17	1.55172	10.6049	-219.662
6	1.58621	11.7062	50.2545
6.37931	1.58621	11.7062	50.7607
6.75862	1.58621	11.7062	50.5302
7.13793	1.58621	11.7062	49.9921
7.51724	1.58621	11.7062	49.3255
7.89655	1.58621	11.7062	48.6053
8.27586	1.58621	11.7062	47.8628
8.65517	1.58621	11.7062	47.1109
9.03448	1.58621	11.7062	46.355
9.41379	1.58621	11.7062	45.5976
9.7931	1.58621	11.7062	44.8394
10.1724	1.58621	11.7062	44.081
10.5517	1.58621	11.7062	43.3224
10.931	1.58621	11.7062	42.5637
11.3103	1.58621	11.7062	41.8048
11.6897	1.58621	11.7062	41.0455
12.069	1.58621	11.7062	40.2851
12.4483	1.58621	11.7062	39.5224
12.8276	1.58621	11.7062	38.754
13.2069	1.58621	11.7062	37.9719
13.5862	1.58621	11.7062	37.1571
13.9655	1.58621	11.7062	36.264
14.3448	1.58621	11.7062	35.1831
14.7241	1.58621	11.7062	33.6526
15.1034	1.58621	11.7062	31.0455
15.4828	1.58621	11.7062	25.8596
15.8621	1.58621	11.7062	14.4975
16.2414	1.58621	11.7062	-11.6567
16.6207	1.58621	11.7062	-73.2384
17	1.58621	11.7062	-219.67
6	1.62069	12.8841	50.2462
6.37931	1.62069	12.8841	50.7524
6.75862	1.62069	12.8841	50.5219
7.13793	1.62069	12.8841	49.9838
7.51724	1.62069	12.8841	49.3172
7.89655	1.62069	12.8841	48.597
8.27586	1.62069	12.8841	47.8545
8.65517	1.62069	12.8841	47.1025
9.03448	1.62069	12.8841	46.3467
9.41379	1.62069	12.8841	45.5893
9.7931	1.62069	12.8841	44.8311
10.1724	1.62069	12.8841	44.0727
10.5517	1.62069	12.8841	43.3141
10.931	1.62069	12.8841	42.5554
11.3103	1.62069	12.8841	41.7965
11.6897	1.62069	12.8841	41.0372
12.069	1.62069	12.8841	40.2768
12.4483	1.62069	12.8841	39.5141
12.8276	1.62069	12.8841	38.7457
13.2069	1.62069	12.8841	37.9636
13.5862	1.62069	12.8841	37.1488
13.9655	1.62069	12.8841	36.2557
14.3448	1.62069	12.8841	35.1748
14.7241	1.62069	12.8841	33.6443
15.1034	1.62069	12.8841	31.0372
15.4828	1.62069	12.8841	25.8513
15.8621	1.62069	12.8841	14.4892
16.2414	1.62069	12.8841	-11.665
16.6207	1.62069	12.8841	-73.2467
17	1.62069	12.8841	-219.678
6	1.65517	14.1443	50.238
6.37931	1.65517	14.1443	50.7441
6.75862	1.65517	14.1443	50.5136
7.13793	1.65517	14.1443	49.9755
7.51724	1.65517	14.1443	49.3089
7.89655	1.65517	14.1443	48.5888
8.27586	1.65517	14.1443	47.8462
8.65517	1.65517	14.1443	47.0943
9.03448	1.65517	14.1443	46.3384
9.41379	1.65517	14.1443	45.581
9.7931	1.65517	14.1443	44.8229
10.1724	1.65517	14.1443	44.0644
10.5517	1.65517	14.1443	43.3058
10.931	1.65517	14.1443	42.5471
11.3103	1.65517	14.1443	41.7882
11.6897	1.65517	14.1443	41.0289
12.069	1.65517	14.1443	40.2686
12.4483	1.65517	14.1443	39.5059
12.8276	1.65517	14.1443	38.7374
13.2069	1.65517	14.1443	37.9554
13.5862	1.65517	14.1443	37.1406
13.9655	1.65517	14.1443	36.2474
14.3448	1.65517	14.1443	35.1665
14.7241	1.65517	14.1443	33.6361
15.1034	1.65517	14.1443	31.0289
15.4828	1.65517	14.1443	25.843
15.8621	1.65517	14.1443	14.4809
16.2414	1.65517	14.1443	-11.6733
16.6207	1.65517	14.1443	-73.255
17	1.65517	14.1443	-219.687
6	1.68966	15.4929	50.2297
6.37931	1.68966	15.4929	50.7359
6.75862	1.68966	15.4929	50.5054
7.13793	1.68966	15.4929	49.9673
7.51724	1.68966	15.4929	49.3007
7.89655	1.68966	15.4929	48.5805
8.27586	1.68966	15.4929	47.838
8.65517	1.68966	15.4929	47.086
9.03448	1.68966	15.4929	46.3302
9.41379	1.68966	15.4929	45.5728
9.7931	1.68966	15.4929	44.8146
10.1724	1.68966	15.4929	44.0562
10.5517	1.68966	15.4929	43.2976
10.931	1.68966	15.4929	42.5389
11.3103	1.68966	15.4929	41.78
11.6897	1.68966	15.4929	41.0207
12.069	1.68966	15.4929	40.2603
12.4483	1.68966	15.4929	39.4976
12.8276	1.68966	15.4929	38.7292
13.2069	1.68966	15.4929	37.9471
13.5862	1.68966	15.4929	37.1323
13.9655	1.68966	15.4929	36.2392
14.3448	1.68966	15.4929	35.1583
14.7241	1.68966	15.4929	33.6278
15.1034	1.68966	15.4929	31.0207
15.4828	1.68966	15.4929	25.8348
15.8621	1.68966	15.4929	14.4727
16.2414	1.68966	15.4929	-11.6815
16.6207	1.68966	15.4929	-73.2632
17	1.68966	15.4929	-219.695
6	1.72414	16.9365	50.2215
6.37931	1.72414	16.9365	50.7277
6.75862	1.72414	16.9365	50.4972
7.13793	1.72414	16.9365	49.9591
7.51724	1.72414	16.9365	49.2925
7.89655	1.72414	16.9365	48.5723
8.27586	1.72414	16.9365	47.8298
8.65517	1.72414	16.9365	47.0779
9.03448	1.72414	16.9365	46.322
9.41379	1.72414	16.9365	45.5646
9.7931	1.72414	16.9365	44.8064
10.1724	1.72414	16.9365	44.048
10.5517	1.72414	16.9365	43.2894
10.931	1.72414	16.9365	42.5307
11.3103	1.72414	16.9365	41.7718
11.6897	1.72414	16.9365	41.0125
12.069	1.72414	16.9365	40.2521
12.4483	1.72414	16.9365	39.4894
12.8276	1.72414	16.9365	38.721
13.2069	1.72414	16.9365	37.9389
13.5862	1.72414	16.9365	37.1241
13.9655	1.72414	16.9365	36.231
14.3448	1.72414	16.9365	35.1501
14.7241	1.72414	16.9365	33.6196
15.1034	1.72414	16.9365	31.0125
15.4828	1.72414	16.9365	25.8266
15.8621	1.72414	16.9365	14.4645
16.2414	1.72414	16.9365	-11.6897
16.6207	1.72414	16.9365	-73.2714
17	1.72414	16.9365	-219.703
6	1.75862	18.4821	50.2134
6.37931	1.75862	18.4821	50.7196
6.75862	1.75862	18.4821	50.489
7.13793	1.75862	18.4821	49.9509
7.51724	1.75862	18.4821	49.2844
7.89655	1.75862	18.4821	48.5642
8.27586	1.75862	18.4821	47.8216
8.65517	1.75862	18.4821	47.0697
9.03448	1.75862	18.4821	46.3139
9.41379	1.75862	18.4821	45.5564
9.7931	1.75862	18.4821	44.7983
10.1724	1.75862	18.4821	44.0398
10.5517	1.75862	18.4821	43.2812
10.931	1.75862	18.4821	42.5225
11.3103	1.75862	18.4821	41.7636
11.6897	1.75862	18.4821	41.0043
12.069	1.75862	18.4821	40.244
12.4483	1.75862	18.4821	39.4813
12.8276	1.75862	18.4821	38.7129
13.2069	1.75862	18.4821	37.9308
13.5862	1.75862	18.4821	37.116
13.9655	1.75862	18.4821	36.2228
14.3448	1.75862	18.4821	35.1419
14.7241	1.75862	18.4821	33.6115
15.1034	1.75862	18.4821	31.0043
15.4828	1.75862	18.4821	25.8184
15.8621	1.75862	18.4821	14.4563
16.2414	1.75862	18.4821	-11.6979
16.6207	1.75862	18.4821	-73.2796
17	1.75862	18.4821	-219.711
6	1.7931	20.1374	50.2053
6.37931	1.7931	20.1374	50.7115
6.75862	1.7931	20.1374	50.4809
7.13793	1.7931	20.1374	49.9428
7.51724	1.7931	20.1374	49.2763
7.89655	1.7931	20.1374	48.5561
8.27586	1.7931	20.1374	47.8135
8.65517	1.7931	20.1374	47.0616
9.03448	1.7931	20.1374	46.3058
9.41379	1.7931	20.1374	45.5483
9.7931	1.7931	20.1374	44.7902
10.1724	1.7931	20.1374	44.0317
10.5517	1.7931	20.1374	43.2731
10.931	1.7931	20.1374	42.5144
11.3103	1.7931	20.1374	41.7555
11.6897	1.7931	20.1374	40.9962
12.069	1.7931	20.1374	40.2359
12.4483	1.7931	20.1374	39.4732
12.8276	1.7931	20.1374	38.7047
13.2069	1.7931	20.1374	37.9227
13.5862	1.7931	20.1374	37.1079
13.9655	1.7931	20.1374	36.2147
14.3448	1.7931	20.1374	35.1338
14.7241	1.7931	20.1374	33.6034
15.1034	1.7931	20.1374	30.9962
15.4828	1.7931	20.1374	25.8103
15.8621	1.7931	20.1374	14.4482
16.2414	1.7931	20.1374	-11.706
16.6207	1.7931	20.1374	-73.2877
17	1.7931	20.1374	-219.719
6	1.82759	21.9104	50.1972
6.37931	1.82759	21.9104	50.7034
6.75862	1.82759	21.9104	50.4729
7.13793	1.82759	21.9104	49.9347
7.51724	1.82759	21.9104	49.2682
7.89655	1.82759	21.9104	48.548
8.27586	1.82759	21.9104	47.8054
8.65517	1.82759	21.9104	47.0535
9.03448	1.82759	21.9104	46.2977
9.41379	1.82759	21.9104	45.5402
9.7931	1.82759	21.9104	44.7821
10.1724	1.82759	21.9104	44.0236
10.5517	1.82759	21.9104	43.2651
10.931	1.82759	21.9104	42.5063
11.3103	1.82759	21.9104	41.7474
11.6897	1.82759	21.9104	40.9881
12.069	1.82759	21.9104	40.2278
12.4483	1.82759	21.9104	39.4651
12.8276	1.82759	21.9104	38.6967
13.2069	1.82759	21.9104	37.9146
13.5862	1.82759	21.9104	37.0998
13.9655	1.82759	21.9104	36.2066
14.3448	1.82759	21.9104	35.1257
14.7241	1.82759	21.9104	33.5953
15.1034	1.82759	21.9104	30.9881
15.4828	1.82759	21.9104	25.8022
15.8621	1.82759	21.9104	14.4401
16.2414	1.82759	21.9104	-11.7141
16.6207	1.82759	21.9104	-73.2958
17	1.82759	21.9104	-219.727
6	1.86207	23.8099	50.1891
6.37931	1.86207	23.8099	50.6953
6.75862	1.86207	23.8099	50.4648
7.13793	1.86207	23.8099	49.9267
7.51724	1.86207	23.8099	49.2601
7.89655	1.86207	23.8099	48.54
8.27586	1.86207	23.8099	47.7974
8.65517	1.86207	23.8099	47.0455
9.03448	1.86207	23.8099	46.2896
9.41379	1.86207	23.8099	45.5322
9.7931	1.86207	23.8099	44.774
10.1724	1.86207	23.8099	44.0156
10.5517	1.86207	23.8099	43.257
10.931	1.86207	23.8099	42.4983
11.3103	1.86207	23.8099	41.7394
11.6897	1.86207	23.8099	40.9801
12.069	1.86207	23.8099	40.2197
12.4483	1.86207	23.8099	39.457
12.8276	1.86207	23.8099	38.6886
13.2069	1.86207	23.8099	37.9065
13.5862	1.86207	23.8099	37.0917
13.9655	1.86207	23.8099	36.1986
14.3448	1.86207	23.8099	35.1177
14.7241	1.86207	23.8099	33.5872
15.1034	1.86207	23.8099	30.9801
15.4828	1.86207	23.8099	25.7942
15.8621	1.86207	23.8099	14.4321
16.2414	1.86207	23.8099	-11.7221
16.6207	1.86207	23.8099	-73.3038
17	1.86207	23.8099	-219.735
6	1.89655	25.8454	50.1811
6.37931	1.89655	25.8454	50.6873
6.75862	1.89655	25.8454	50.4568
7.13793	1.89655	25.8454	49.9187
7.51724	1.89655	25.8454	49.2521
7.89655	1.89655	25.8454	48.5319
8.27586	1.89655	25.8454	47.7894
8.65517	1.89655	25.8454	47.0375
9.03448	1.89655	25.8454	46.2816
9.41379	1.89655	25.8454	45.5242
9.7931	1.89655	25.8454	44.766
10.1724	1.89655	25.8454	44.0076
10.5517	1.89655	25.8454	43.249
10.931	1.89655	25.8454	42.4903
11.3103	1.89655	25.8454	41.7314
11.6897	1.89655	25.8454	40.9721
12.069	1.89655	25.8454	40.2117
12.4483	1.89655	25.8454	39.449
12.8276	1.89655	25.8454	38.6806
13.2069	1.89655	25.8454	37.8985
13.5862	1.89655	25.8454	37.0837
13.9655	1.89655	25.8454	36.1906
14.3448	1.89655	25.8454	35.1097
14.7241	1.89655	25.8454	33.5792
15.1034	1.89655	25.8454	30.9721
15.4828	1.89655	25.8454	25.7862
15.8621	1.89655	25.8454	14.4241
16.2414	1.89655	25.8454	-11.7301
16.6207	1.89655	25.8454	-73.3118
17	1.89655	25.8454	-219.743
6	1.93103	28.0269	50.1732
6.37931	1.93103	28.0269	50.6794
6.75862	1.93103	28.0269	50.4488
7.13793	1.93103	28.0269	49.9107
7.51724	1.93103	28.0269	49.2442
7.89655	1.93103	28.0269	48.524
8.27586	1.93103	28.0269	47.7814
8.65517	1.93103	28.0269	47.0295
9.03448	1.93103	28.0269	46.2737
9.41379	1.93103	28.0269	45.5162
9.7931	1.93103	28.0269	44.7581
10.1724	1.93103	28.0269	43.9996
10.5517	1.93103	28.0269	43.241
10.931	1.93103	28.0269	42.4823
11.3103	1.93103	28.0269	41.7234
11.6897	1.93103	28.0269	40.9641
12.069	1.93103	28.0269	40.2038
12.4483	1.93103	28.0269	39.4411
12.8276	1.93103	28.0269	38.6727
13.2069	1.93103	28.0269	37.8906
13.5862	1.93103	28.0269	37.0758
13.9655	1.93103	28.0269	36.1826
14.3448	1.93103	28.0269	35.1017
14.7241	1.93103	28.0269	33.5713
15.1034	1.93103	28.0269	30.9641
15.4828	1.93103	28.0269	25.7782
15.8621	1.93103	28.0269	14.4161
16.2414	1.93103	28.0269	-11.7381
16.6207	1.93103	28.0269	-73.3198
17	1.93103	28.0269	-219.751
6	1.96552	30.3653	50.1652
6.37931	1.96552	30.3653	50.6714
6.75862	1.96552	30.3653	50.4409
7.13793	1.96552	30.3653	49.9028
7.51724	1.96552	30.3653	49.2362
7.89655	1.96552	30.3653	48.516
8.27586	1.96552	30.3653	47.7735
8.65517	1.96552	30.3653	47.0216
9.03448	1.96552	30.3653	46.2657
9.41379	1.96552	30.3653	45.5083
9.7931	1.96552	30.3653	44.7501
10.1724	1.96552	30.3653	43.9917
10.5517	1.96552	30.3653	43.2331
10.931	1.96552	30.3653	42.4744
11.3103	1.96552	30.3653	41.7155
11.6897	1.96552	30.3653	40.9562
12.069	1.96552	30.3653	40.1958
12.4483	1.96552	30.3653	39.4331
12.8276	1.96552	30.3653	38.6647
13.2069	1.96552	30.3653	37.8826
13.5862	1.96552	30.3653	37.0678
13.9655	1.96552	30.3653	36.1747
14.3448	1.96552	30.3653	35.0938
14.7241	1.96552	30.3653	33.5633
15.1034	1.96552	30.3653	30.9562
15.4828	1.96552	30.3653	25.7703
15.8621	1.96552	30.3653	14.4082
16.2414	1.96552	30.3653	-11.746
16.6207	1.96552	30.3653	-73.3277
17	1.96552	30.3653	-219.759
6	2	32.8722	-inf
6.37931	2	32.8722	-inf
6.75862	2	32.8722	-inf
7.13793	2	32.8722	-inf
7.51724	2	32.8722	-inf
7.89655	2	32.8722	-inf
8.27586	2	32.8722	-inf
8.65517	2	32.8722	-inf
9.03448	2	32.8722	-inf
9.41379	2	32.8722	-inf
9.7931	2	32.8722	-inf
10.1724	2	32.8722	-inf
10.5517	2	32.8722	-inf
10.931	2	32.8722	-inf
11.3103	2	32.8722	-inf
11.6897	2	32.8722	-inf
12.069	2	32.8722	-inf
12.4483	2	32.8722	-inf
12.8276	2	32.8722	-inf
13.2069	2	32.8722	-inf
13.5862	2	32.8722	-inf
13.9655	2	32.8722	-inf
14.3448	2	32.8722	-inf
14.7241	2	32.8722	-inf
15.1034	2	32.8722	-inf
15.4828	2	32.8722	-inf
15.8621	2	32.8722	-inf
16.2414	2	32.8722	-inf
16.6207	2	32.8722	-inf
17	2	32.8722	-inf
