log(E/eV)	z/pc	t/yr	Synchr	IC	IC - IR	SSC
-6	10	32.7213	36.8267	0	0	0
-5.2069	10	32.7213	37.262	0	0	26.6188
-4.41379	10	32.7213	37.6659	0	0	28.0085
-3.62069	10	32.7213	38.0502	0	21.9077	29.103
-2.82759	10	32.7213	38.4214	0	24.9884	29.9629
-2.03448	10	32.7213	38.7929	0	27.4188	30.6609
-1.24138	10	32.7213	39.1867	23.4338	29.5165	31.2663
-0.448276	10	32.7213	39.5937	26.0067	30.9658	31.8071
0.344828	10	32.7213	39.9759	28.3141	32.0831	32.317
1.13793	10	32.7213	40.3022	30.2464	32.9281	32.799
1.93103	10	32.7213	40.5423	31.581	33.5661	33.2663
2.72414	10	32.7213	40.6893	32.6254	34.0757	33.7161
3.51724	10	32.7213	40.7597	33.4079	34.5139	34.1645
4.31034	10	32.7213	40.7722	33.9907	34.9417	34.5843
5.10345	10	32.7213	40.7355	34.4902	35.3458	35.0217
5.89655	10	32.7213	40.6681	34.9175	35.7315	35.4255
6.68966	10	32.7213	40.5511	35.3368	36.112	35.8073
7.48276	10	32.7213	40.3227	35.6742	36.4596	36.1585
8.27586	10	32.7213	39.888	36.0212	36.9418	36.4791
9.06897	10	32.7213	39.0526	36.2913	37.3	36.7709
9.86207	10	32.7213	37.2911	36.5319	37.5581	37.0099
10.6552	10	32.7213	34.8521	36.6056	37.8713	37.1174
11.4483	10	32.7213	29.8221	35.9413	37.7877	37.0418
12.2414	10	32.7213	10.5568	34.6073	37.4704	36.68
13.0345	10	32.7213	-114.594	32.7991	36.5078	36.2039
13.8276	10	32.7213	0	30.8642	34.83	35.3885
14.6207	10	32.7213	0	28.1062	32.1406	33.6611
15.4138	10	32.7213	0	20.1857	24.232	26.6558
16.2069	10	32.7213	0	0	0	0
17	10	32.7213	0	0	0	0
-5.45569	10.8264	5.24137	39.7176	0	0	0
-4.66259	10.8264	5.24137	40.1475	0	0	30.4002
-3.86948	10.8264	5.24137	40.5485	0	0	31.7429
-3.07638	10.8264	5.24137	40.9291	0	26.9487	32.7692
-2.28328	10.8264	5.24137	41.2886	0	29.8211	33.589
-1.49017	10.8264	5.24137	41.6223	0	32.0614	34.2665
-0.697068	10.8264	5.24137	41.9236	28.2288	33.6683	34.8596
0.0960353	10.8264	5.24137	42.1675	30.7495	34.8102	35.391
0.889139	10.8264	5.24137	42.3279	32.8538	35.6724	35.89
1.68224	10.8264	5.24137	42.4229	34.2911	36.3517	36.3566
2.47535	10.8264	5.24137	42.4756	35.3509	36.8743	36.8011
3.26845	10.8264	5.24137	42.5015	36.1574	37.3342	37.2154
4.06155	10.8264	5.24137	42.5061	36.7786	37.7744	37.6187
4.85466	10.8264	5.24137	42.4865	37.3024	38.1645	37.9538
5.64776	10.8264	5.24137	42.4349	37.7539	38.5413	38.3239
6.44086	10.8264	5.24137	42.3622	38.1661	38.916	38.6445
7.23397	10.8264	5.24137	42.2419	38.5427	39.2146	38.9429
8.02707	10.8264	5.24137	42.0088	38.9464	39.4722	39.2071
8.82017	10.8264	5.24137	41.5684	39.2455	39.739	39.4381
9.61328	10.8264	5.24137	40.7264	39.4344	39.8115	39.6085
10.4064	10.8264	5.24137	38.9174	39.5145	39.8863	39.6728
11.1995	10.8264	5.24137	36.2647	39.4045	39.8579	39.5696
11.9926	10.8264	5.24137	31.239	38.801	39.7714	39.3715
12.7857	10.8264	5.24137	10.2942	37.4306	39.5585	39.0097
13.5788	10.8264	5.24137	-125.286	35.6319	38.8821	38.5679
14.3719	10.8264	5.24137	0	33.7043	37.5477	37.7726
15.165	10.8264	5.24137	0	30.9451	34.9533	36.0541
15.9581	10.8264	5.24137	0	23.0251	27.08	29.0529
16.7512	10.8264	5.24137	0	0	0	0
17.5443	10.8264	5.24137	0	0	0	0
-5.45319	11.721	5.6129	40.2151	0	0	0
-4.66009	11.721	5.6129	40.6418	0	0	31.4386
-3.86699	11.721	5.6129	41.0404	0	0	32.7654
-3.07388	11.721	5.6129	41.4166	0	27.5814	33.7661
-2.28078	11.721	5.6129	41.7643	0	30.4512	34.5706
-1.48768	11.721	5.6129	42.0721	0	32.6884	35.2395
-0.694572	11.721	5.6129	42.3345	28.8603	34.2856	35.8267
0.0985311	11.721	5.6129	42.5365	31.3788	35.4032	36.3529
0.891635	11.721	5.6129	42.6633	33.4792	36.2404	36.8461
1.68474	11.721	5.6129	42.7374	34.9039	36.9075	37.3056
2.47784	11.721	5.6129	42.7791	35.9352	37.4248	37.7408
3.27094	11.721	5.6129	42.7995	36.7211	37.8825	38.1418
4.06405	11.721	5.6129	42.801	37.3324	38.3218	38.5301
4.85715	11.721	5.6129	42.7792	37.852	38.7108	38.8426
5.65026	11.721	5.6129	42.7257	38.3018	39.0821	39.1965
6.44336	11.721	5.6129	42.6528	38.7131	39.4402	39.4958
7.23646	11.721	5.6129	42.5308	39.0874	39.7019	39.7709
8.02957	11.721	5.6129	42.2934	39.4844	39.9156	40.0088
8.82267	11.721	5.6129	41.8474	39.7608	40.1533	40.2118
9.61577	11.721	5.6129	41.0001	39.9061	40.1972	40.3514
10.4089	11.721	5.6129	39.1608	39.9406	40.2603	40.3861
11.202	11.721	5.6129	36.2524	39.794	40.2255	40.2727
11.9951	11.721	5.6129	31.2306	39.1748	40.1366	40.0842
12.7882	11.721	5.6129	8.46765	37.7993	39.9221	39.7432
13.5813	11.721	5.6129	-138.404	35.9998	39.2476	39.3182
14.3744	11.721	5.6129	0	34.0722	37.915	38.5358
15.1675	11.721	5.6129	0	31.3131	35.3209	36.8249
15.9606	11.721	5.6129	0	23.3931	27.4476	29.8279
16.7537	11.721	5.6129	0	0	0	0
17.5468	11.721	5.6129	0	0	0	0
-5.45072	12.6896	6.01119	40.526	0	0	0
-4.65761	12.6896	6.01119	40.9498	0	0	32.0847
-3.86451	12.6896	6.01119	41.3458	0	0	33.4004
-3.07141	12.6896	6.01119	41.7166	0	28.0066	34.3824
-2.2783	12.6896	6.01119	42.0518	0	30.8744	35.1752
-1.4852	12.6896	6.01119	42.3369	0	33.1093	35.8373
-0.692095	12.6896	6.01119	42.5709	29.2845	34.6991	36.4195
0.101008	12.6896	6.01119	42.7456	31.8014	35.7989	36.941
0.894111	12.6896	6.01119	42.8528	33.8987	36.6174	37.4292
1.68721	12.6896	6.01119	42.9154	35.3142	37.2753	37.8825
2.48032	12.6896	6.01119	42.9511	36.3244	37.7885	38.3099
3.27342	12.6896	6.01119	42.9683	37.0949	38.2446	38.7
4.06653	12.6896	6.01119	42.9677	37.6987	38.683	39.0766
4.85963	12.6896	6.01119	42.9439	38.2151	39.0702	39.372
5.65273	12.6896	6.01119	42.8882	38.6634	39.4351	39.713
6.44584	12.6896	6.01119	42.8146	39.0737	39.7776	39.9958
7.23894	12.6896	6.01119	42.6905	39.4452	40.0106	40.2529
8.03204	12.6896	6.01119	42.4484	39.8346	40.1956	40.4716
8.82515	12.6896	6.01119	41.9963	40.0908	40.4161	40.6549
9.61825	12.6896	6.01119	41.1439	40.2042	40.4446	40.7744
10.4114	12.6896	6.01119	39.2873	40.2104	40.5017	40.7917
11.2045	12.6896	6.01119	36.0856	40.0435	40.4638	40.6756
11.9976	12.6896	6.01119	31.0663	39.4177	40.3739	40.4955
12.7907	12.6896	6.01119	6.33491	38.0401	40.1582	40.1693
13.5838	12.6896	6.01119	-152.761	36.2403	39.4858	39.7563
14.3769	12.6896	6.01119	0	34.3128	38.155	38.985
15.17	12.6896	6.01119	0	31.5538	35.5613	37.2814
15.9631	12.6896	6.01119	0	23.6339	27.6881	30.2889
16.7562	12.6896	6.01119	0	0	0	0
17.5493	12.6896	6.01119	0	0	0	0
-5.44826	13.7382	6.43819	40.7426	0	0	0
-4.65515	13.7382	6.43819	41.1636	0	0	32.5296
-3.86205	13.7382	6.43819	41.5565	0	0	33.8372
-3.06895	13.7382	6.43819	41.9214	0	28.3237	34.8047
-2.27584	13.7382	6.43819	42.2439	0	31.19	35.5883
-1.48274	13.7382	6.43819	42.5089	0	33.4228	36.2447
-0.689637	13.7382	6.43819	42.7209	29.6007	35.0067	36.8225
0.103466	13.7382	6.43819	42.8757	32.1165	36.0931	37.3398
0.89657	13.7382	6.43819	42.9695	34.2111	36.8969	37.8234
1.68967	13.7382	6.43819	43.0246	35.6194	37.5476	38.2713
2.48278	13.7382	6.43819	43.0563	36.6134	38.0576	38.6918
3.27588	13.7382	6.43819	43.0711	37.3719	38.5123	39.0725
4.06898	13.7382	6.43819	43.0687	37.9698	38.9498	39.4391
4.86209	13.7382	6.43819	43.0428	38.4836	39.335	39.7203
5.65519	13.7382	6.43819	42.9847	38.9308	39.693	40.0502
6.44829	13.7382	6.43819	42.9097	39.3399	40.0213	40.3191
7.2414	13.7382	6.43819	42.783	39.7081	40.231	40.5616
8.0345	13.7382	6.43819	42.5355	40.0899	40.3951	40.7651
8.8276	13.7382	6.43819	42.0765	40.3283	40.6037	40.9335
9.62071	13.7382	6.43819	41.219	40.4168	40.6223	41.0382
10.4138	13.7382	6.43819	39.3531	40.403	40.6758	41.0437
11.2069	13.7382	6.43819	35.8261	40.2227	40.636	40.9274
12	13.7382	6.43819	30.8056	39.5938	40.5455	40.7544
12.7931	13.7382	6.43819	3.94308	38.2153	40.3289	40.4398
13.5862	13.7382	6.43819	-168.387	36.4155	39.6587	40.036
14.3793	13.7382	6.43819	0	34.488	38.3297	39.2743
15.1724	13.7382	6.43819	0	31.7292	35.7364	37.5778
15.9655	13.7382	6.43819	0	23.8093	27.8632	30.5901
16.7586	13.7382	6.43819	0	0	0	0
17.5517	13.7382	6.43819	0	0	0	0
-5.44582	14.8735	6.89599	40.9027	0	0	0
-4.65271	14.8735	6.89599	41.3209	0	0	32.8528
-3.85961	14.8735	6.89599	41.7104	0	0	34.154
-3.06651	14.8735	6.89599	42.0688	0	28.5748	35.1102
-2.2734	14.8735	6.89599	42.3786	0	31.4398	35.8862
-1.4803	14.8735	6.89599	42.6255	0	33.6708	36.5378
-0.687197	14.8735	6.89599	42.8197	29.851	35.2497	37.1115
0.105906	14.8735	6.89599	42.9589	32.3658	36.3254	37.625
0.89901	14.8735	6.89599	43.0427	34.458	37.1176	38.1045
1.69211	14.8735	6.89599	43.0922	35.8605	37.7625	38.5473
2.48522	14.8735	6.89599	43.1209	36.8417	38.2698	38.9614
3.27832	14.8735	6.89599	43.1337	37.5906	38.7233	39.3335
4.07142	14.8735	6.89599	43.1295	38.1836	39.1599	39.6911
4.86453	14.8735	6.89599	43.1014	38.6953	39.5427	39.96
5.65763	14.8735	6.89599	43.0406	39.1414	39.8939	40.2798
6.45073	14.8735	6.89599	42.9638	39.5493	40.2092	40.5368
7.24384	14.8735	6.89599	42.8338	39.9139	40.3991	40.7667
8.03694	14.8735	6.89599	42.5802	40.2882	40.5469	40.9576
8.83004	14.8735	6.89599	42.1131	40.5107	40.7465	41.1139
9.62315	14.8735	6.89599	41.25	40.5786	40.7582	41.2071
10.4163	14.8735	6.89599	39.3795	40.5497	40.8091	41.204
11.2094	14.8735	6.89599	35.5031	40.3596	40.768	41.0885
12.0025	14.8735	6.89599	30.4714	39.7294	40.6772	40.9216
12.7956	14.8735	6.89599	1.30166	38.3505	40.4597	40.6165
13.5887	14.8735	6.89599	-185.357	36.5508	39.7917	40.2202
14.3818	14.8735	6.89599	0	34.6234	38.4645	39.4672
15.1749	14.8735	6.89599	0	31.8647	35.8715	37.7775
15.968	14.8735	6.89599	0	23.9449	27.9984	30.7948
16.7611	14.8735	6.89599	0	0	0	0
17.5542	14.8735	6.89599	0	0	0	0
-5.4434	16.1026	7.38683	41.0254	0	0	0
-4.65029	16.1026	7.38683	41.4407	0	0	33.095
-3.85719	16.1026	7.38683	41.8267	0	0	34.3912
-3.06409	16.1026	7.38683	42.178	0	28.7816	35.338
-2.27098	16.1026	7.38683	42.4752	0	31.6455	36.1078
-1.47788	16.1026	7.38683	42.7053	0	33.8748	36.755
-0.684776	16.1026	7.38683	42.8846	30.0571	35.4494	37.3251
0.108328	16.1026	7.38683	43.011	32.5711	36.5164	37.8349
0.901431	16.1026	7.38683	43.0869	34.6612	37.299	38.3105
1.69453	16.1026	7.38683	43.1321	36.0587	37.9392	38.7485
2.48764	16.1026	7.38683	43.1583	37.0293	38.4442	39.1566
3.28074	16.1026	7.38683	43.1694	37.7703	38.8966	39.5208
4.07385	16.1026	7.38683	43.1634	38.3593	39.3322	39.8701
4.86695	16.1026	7.38683	43.133	38.8693	39.7126	40.1277
5.66005	16.1026	7.38683	43.0692	39.3144	40.0569	40.4383
6.45316	16.1026	7.38683	42.99	39.721	40.3601	40.6844
7.24626	16.1026	7.38683	42.8561	40.0818	40.5327	40.9034
8.03936	16.1026	7.38683	42.5955	40.4488	40.6672	41.0835
8.83247	16.1026	7.38683	42.1191	40.6567	40.8595	41.2295
9.62557	16.1026	7.38683	41.2494	40.7071	40.8659	41.3131
10.4187	16.1026	7.38683	39.3767	40.666	40.915	41.3034
11.2118	16.1026	7.38683	35.1422	40.4682	40.873	41.1893
12.0049	16.1026	7.38683	30.0739	39.8378	40.7819	41.0277
12.798	16.1026	7.38683	-1.59366	38.4588	40.5636	40.7306
13.5911	16.1026	7.38683	-203.764	36.6592	39.8978	40.3408
14.3842	16.1026	7.38683	0	34.7319	38.5724	39.5958
15.1773	16.1026	7.38683	0	31.9733	35.9798	37.9127
15.9704	16.1026	7.38683	0	24.0535	28.1067	30.9351
16.7635	16.1026	7.38683	0	0	0	0
17.5566	16.1026	7.38683	0	0	0	0
-5.44099	17.4333	7.91315	41.0492	0	0	0
-4.64789	17.4333	7.91315	41.4617	0	0	33.1348
-3.85479	17.4333	7.91315	41.8437	0	0	34.4268
-3.06168	17.4333	7.91315	42.1876	0	28.8843	35.3659
-2.26858	17.4333	7.91315	42.4721	0	31.7472	36.1302
-1.47548	17.4333	7.91315	42.6863	0	33.975	36.7735
-0.682372	17.4333	7.91315	42.853	30.1591	35.5456	37.3402
0.110732	17.4333	7.91315	42.9686	32.6724	36.6053	37.8465
0.903835	17.4333	7.91315	43.038	34.7604	37.3799	38.3185
1.69694	17.4333	7.91315	43.0797	36.1536	38.0162	38.7518
2.49004	17.4333	7.91315	43.1038	37.1154	38.5192	39.1541
3.28315	17.4333	7.91315	43.1133	37.8499	38.9707	39.5107
4.07625	17.4333	7.91315	43.1055	38.4354	39.4052	39.852
4.86935	17.4333	7.91315	43.0726	38.9439	39.7829	40.0993
5.66246	17.4333	7.91315	43.0058	39.388	40.1203	40.401
6.45556	17.4333	7.91315	42.9236	39.7932	40.4122	40.6372
7.24866	17.4333	7.91315	42.7852	40.1501	40.5694	40.8464
8.04177	17.4333	7.91315	42.5166	40.51	40.6925	41.0169
8.83487	17.4333	7.91315	42.0291	40.7043	40.8787	41.1541
9.62797	17.4333	7.91315	41.1514	40.7393	40.8811	41.2296
10.4211	17.4333	7.91315	39.2777	40.6881	40.9286	41.2145
11.2142	17.4333	7.91315	34.7102	40.4841	40.886	41.1019
12.0073	17.4333	7.91315	29.5452	39.8541	40.7948	40.9452
12.8004	17.4333	7.91315	-4.82665	38.4752	40.5757	40.6551
13.5935	17.4333	7.91315	-223.791	36.6756	39.912	40.271
14.3866	17.4333	7.91315	0	34.7485	38.5885	39.5336
15.1797	17.4333	7.91315	0	31.9901	35.9962	37.8569
15.9728	17.4333	7.91315	0	24.0703	28.1232	30.8846
16.7659	17.4333	7.91315	0	0	0	0
17.559	17.4333	7.91315	0	0	0	0
-5.43861	18.8739	8.47752	41.0554	0	0	0
-4.6455	18.8739	8.47752	41.4649	0	0	33.1357
-3.8524	18.8739	8.47752	41.8427	0	0	34.4242
-3.0593	18.8739	8.47752	42.1789	0	28.9652	35.3567
-2.26619	18.8739	8.47752	42.4506	0	31.8272	36.1162
-1.47309	18.8739	8.47752	42.6496	0	34.0536	36.7559
-0.679985	18.8739	8.47752	42.8052	30.2394	35.6205	37.3194
0.113118	18.8739	8.47752	42.9115	32.7521	36.674	37.8224
0.906222	18.8739	8.47752	42.9755	34.8382	37.4419	38.2908
1.69933	18.8739	8.47752	43.0142	36.2274	38.0747	38.7196
2.49243	18.8739	8.47752	43.0366	37.1818	38.5761	39.1163
3.28553	18.8739	8.47752	43.0446	37.9106	39.0266	39.4655
4.07864	18.8739	8.47752	43.0351	38.4932	39.46	39.7991
4.87174	18.8739	8.47752	42.9997	39.0003	39.8348	40.0365
5.66484	18.8739	8.47752	42.9298	39.4435	40.1655	40.3298
6.45795	18.8739	8.47752	42.8442	39.8472	40.4466	40.5568
7.25105	18.8739	8.47752	42.7005	40.2001	40.5897	40.757
8.04415	18.8739	8.47752	42.4228	40.5529	40.7028	40.9189
8.83726	18.8739	8.47752	41.9223	40.7345	40.8838	41.0482
9.63036	18.8739	8.47752	41.0347	40.7557	40.883	41.1165
10.4235	18.8739	8.47752	39.1604	40.6957	40.9292	41.097
11.2166	18.8739	8.47752	34.3377	40.4866	40.8861	40.9861
12.0097	18.8739	8.47752	28.9611	39.8573	40.7948	40.8339
12.8028	18.8739	8.47752	-8.33851	38.4787	40.575	40.5501
13.5959	18.8739	8.47752	-245.485	36.6793	39.9135	40.171
14.389	18.8739	8.47752	0	34.7523	38.5917	39.4409
15.1821	18.8739	8.47752	0	31.994	35.9997	37.7705
15.9752	18.8739	8.47752	0	24.0743	28.1268	30.8037
16.7683	18.8739	8.47752	0	0	0	0
17.5614	18.8739	8.47752	0	0	0	0
-5.43624	20.4336	9.08273	41.0578	0	0	0
-4.64313	20.4336	9.08273	41.4644	0	0	33.1263
-3.85003	20.4336	9.08273	41.8376	0	0	34.4118
-3.05693	20.4336	9.08273	42.1657	0	29.039	35.3384
-2.26382	20.4336	9.08273	42.4245	0	31.9002	36.0936
-1.47072	20.4336	9.08273	42.6089	0	34.1251	36.7301
-0.677616	20.4336	9.08273	42.7546	30.3126	35.6887	37.2905
0.115487	20.4336	9.08273	42.8528	32.8247	36.7367	37.7903
0.908591	20.4336	9.08273	42.9122	34.9089	37.4988	38.2551
1.70169	20.4336	9.08273	42.9484	36.2947	38.1287	38.6795
2.4948	20.4336	9.08273	42.9692	37.2425	38.6285	39.0706
3.2879	20.4336	9.08273	42.9758	37.9665	39.0781	39.4126
4.081	20.4336	9.08273	42.9647	38.5465	39.5103	39.7386
4.87411	20.4336	9.08273	42.9269	39.0523	39.8823	39.9666
5.66721	20.4336	9.08273	42.8539	39.4946	40.2061	40.2518
6.46031	20.4336	9.08273	42.7646	39.8968	40.4768	40.47
7.25342	20.4336	9.08273	42.615	40.2455	40.6068	40.662
8.04652	20.4336	9.08273	42.327	40.5913	40.7113	40.816
8.83963	20.4336	9.08273	41.8111	40.7609	40.8875	40.9381
9.63273	20.4336	9.08273	40.9112	40.7694	40.8841	41
10.4258	20.4336	9.08273	39.0364	40.7019	40.9293	40.9768
11.2189	20.4336	9.08273	34.0682	40.4882	40.8858	40.8678
12.012	20.4336	9.08273	28.3306	39.8601	40.7944	40.7197
12.8051	20.4336	9.08273	-12.1388	38.4819	40.5739	40.4416
13.5982	20.4336	9.08273	-268.97	36.6826	39.9146	40.0672
14.3913	20.4336	9.08273	0	34.7558	38.5945	39.344
15.1845	20.4336	9.08273	0	31.9975	36.0029	37.6799
15.9776	20.4336	9.08273	0	24.0778	28.1301	30.7186
16.7707	20.4336	9.08273	0	0	0	0
17.5638	20.4336	9.08273	0	0	0	0
-5.43388	22.1222	9.73177	41.0573	0	0	0
-4.64078	22.1222	9.73177	41.4608	0	0	33.1089
-3.84768	22.1222	9.73177	41.8293	0	0	34.3917
-3.05457	22.1222	9.73177	42.1489	0	29.1071	35.3133
-2.26147	22.1222	9.73177	42.3946	0	31.9675	36.0646
-1.46837	22.1222	9.73177	42.565	0	34.1911	36.6978
-0.675264	22.1222	9.73177	42.7019	30.3801	35.7515	37.2553
0.117839	22.1222	9.73177	42.7929	32.8917	36.7947	37.7519
0.910943	22.1222	9.73177	42.8482	34.9741	37.5517	38.2134
1.70405	22.1222	9.73177	42.8823	36.3566	38.179	38.6333
2.49715	22.1222	9.73177	42.9017	37.2987	38.6774	39.0188
3.29025	22.1222	9.73177	42.9072	38.0184	39.1262	39.3538
4.08336	22.1222	9.73177	42.8945	38.5962	39.557	39.6723
4.87646	22.1222	9.73177	42.8544	39.1009	39.926	39.8911
5.66956	22.1222	9.73177	42.7785	39.5423	40.243	40.1684
6.46267	22.1222	9.73177	42.6853	39.9427	40.5037	40.3783
7.25577	22.1222	9.73177	42.5291	40.2871	40.6215	40.5626
8.04887	22.1222	9.73177	42.2297	40.6261	40.7181	40.7093
8.84198	22.1222	9.73177	41.6956	40.784	40.8901	40.8249
9.63508	22.1222	9.73177	40.7802	40.781	40.8846	40.881
10.4282	22.1222	9.73177	38.9047	40.7067	40.9288	40.8546
11.2213	22.1222	9.73177	33.8752	40.4891	40.885	40.7475
12.0144	22.1222	9.73177	27.6497	39.8624	40.7936	40.6033
12.8075	22.1222	9.73177	-16.2513	38.4845	40.5724	40.3304
13.6006	22.1222	9.73177	0	36.6855	39.9152	39.9603
14.3937	22.1222	9.73177	0	34.7587	38.5969	39.2438
15.1868	22.1222	9.73177	0	32.0006	36.0057	37.5859
15.9799	22.1222	9.73177	0	24.081	28.1329	30.6303
16.773	22.1222	9.73177	0	0	0	0
17.5661	22.1222	9.73177	0	0	0	0
-5.43155	23.9503	10.4278	41.0545	0	0	0
-4.63845	23.9503	10.4278	41.4549	0	0	33.0853
-3.84534	23.9503	10.4278	41.8184	0	0	34.3656
-3.05224	23.9503	10.4278	42.1292	0	29.1705	35.2826
-2.25914	23.9503	10.4278	42.3618	0	32.0302	36.0303
-1.46603	23.9503	10.4278	42.5185	0	34.2525	36.6606
-0.672929	23.9503	10.4278	42.6473	30.443	35.8098	37.2152
0.120175	23.9503	10.4278	42.732	32.9541	36.8487	37.7088
0.913278	23.9503	10.4278	42.7838	35.0347	37.6012	38.1668
1.70638	23.9503	10.4278	42.8161	36.4141	38.2263	38.5823
2.49948	23.9503	10.4278	42.8343	37.3512	38.7234	38.9622
3.29259	23.9503	10.4278	42.8387	38.0672	39.1713	39.2901
4.08569	23.9503	10.4278	42.8246	38.6429	39.6008	39.6011
4.8788	23.9503	10.4278	42.7825	39.1465	39.9665	39.8111
5.6719	23.9503	10.4278	42.704	39.5869	40.2767	40.0807
6.465	23.9503	10.4278	42.6068	39.9856	40.5276	40.2827
7.25811	23.9503	10.4278	42.4436	40.3256	40.6339	40.4597
8.05121	23.9503	10.4278	42.1317	40.6577	40.7234	40.5997
8.84431	23.9503	10.4278	41.5764	40.8044	40.8917	40.7093
9.63742	23.9503	10.4278	40.6412	40.7906	40.8843	40.7601
10.4305	23.9503	10.4278	38.7645	40.7103	40.9277	40.7309
11.2236	23.9503	10.4278	33.714	40.4893	40.8837	40.6257
12.0167	23.9503	10.4278	26.9144	39.864	40.7923	40.4852
12.8098	23.9503	10.4278	-20.7018	38.4867	40.5704	40.2171
13.6029	23.9503	10.4278	0	36.6878	39.9154	39.851
14.396	23.9503	10.4278	0	34.7612	38.5988	39.141
15.1891	23.9503	10.4278	0	32.0032	36.0079	37.4892
15.9822	23.9503	10.4278	0	24.0836	28.1351	30.5395
16.7753	23.9503	10.4278	0	0	0	0
17.5685	23.9503	10.4278	0	0	0	0
-5.42923	25.9294	11.1744	41.0498	0	0	0
-4.63613	25.9294	11.1744	41.447	0	0	33.0564
-3.84302	25.9294	11.1744	41.8052	0	0	34.3345
-3.04992	25.9294	11.1744	42.1069	0	29.23	35.2473
-2.25682	25.9294	11.1744	42.3264	0	32.089	35.9917
-1.46371	25.9294	11.1744	42.4699	0	34.31	36.6192
-0.67061	25.9294	11.1744	42.5913	30.5019	35.8644	37.1711
0.122493	25.9294	11.1744	42.6702	33.0125	36.8993	37.6616
0.915597	25.9294	11.1744	42.7191	35.0915	37.6479	38.1163
1.7087	25.9294	11.1744	42.7497	36.468	38.2709	38.5273
2.5018	25.9294	11.1744	42.767	37.4004	38.7669	38.9016
3.29491	25.9294	11.1744	42.7705	38.1131	39.2138	39.2224
4.08801	25.9294	11.1744	42.7552	38.6869	39.6419	39.5261
4.88111	25.9294	11.1744	42.7111	39.1895	40.0043	39.7273
5.67422	25.9294	11.1744	42.6307	39.629	40.3075	39.9894
6.46732	25.9294	11.1744	42.5296	40.0258	40.549	40.1839
7.26042	25.9294	11.1744	42.3591	40.3613	40.6442	40.3541
8.05353	25.9294	11.1744	42.0337	40.6865	40.7273	40.4877
8.84663	25.9294	11.1744	41.4541	40.8223	40.8921	40.5916
9.63973	25.9294	11.1744	40.4935	40.7984	40.8833	40.6375
10.4328	25.9294	11.1744	38.615	40.7126	40.926	40.606
11.2259	25.9294	11.1744	33.5581	40.4886	40.8818	40.5027
12.019	25.9294	11.1744	26.1202	39.865	40.7903	40.3656
12.8121	25.9294	11.1744	-25.5183	38.4882	40.5678	40.102
13.6053	25.9294	11.1744	0	36.6895	39.9149	39.7397
14.3984	25.9294	11.1744	0	34.763	38.6	39.036
15.1915	25.9294	11.1744	0	32.0052	36.0095	37.3902
15.9846	25.9294	11.1744	0	24.0856	28.1368	30.4464
16.7777	25.9294	11.1744	0	0	0	0
17.5708	25.9294	11.1744	0	0	0	0
-5.42693	28.0722	11.9752	41.0434	0	0	0
-4.63383	28.0722	11.9752	41.4373	0	0	33.0233
-3.84072	28.0722	11.9752	41.79	0	0	34.2993
-3.04762	28.0722	11.9752	42.0823	0	29.286	35.2083
-2.25451	28.0722	11.9752	42.2888	0	32.1443	35.9496
-1.46141	28.0722	11.9752	42.4195	0	34.364	36.5743
-0.668308	28.0722	11.9752	42.5339	30.5573	35.9156	37.1235
0.124795	28.0722	11.9752	42.6078	33.0676	36.947	37.6111
0.917899	28.0722	11.9752	42.654	35.1448	37.6919	38.0623
1.711	28.0722	11.9752	42.6834	36.5186	38.3131	38.4689
2.50411	28.0722	11.9752	42.6999	37.4468	38.8079	38.8376
3.29721	28.0722	11.9752	42.7026	38.1565	39.254	39.1513
4.09031	28.0722	11.9752	42.6863	38.7286	39.6805	39.4475
4.88342	28.0722	11.9752	42.6406	39.2302	40.0395	39.6403
5.67652	28.0722	11.9752	42.5587	39.6687	40.3357	39.895
6.46962	28.0722	11.9752	42.454	40.0635	40.5678	40.0822
7.26273	28.0722	11.9752	42.2761	40.3943	40.6527	40.246
8.05583	28.0722	11.9752	41.9367	40.7126	40.7298	40.3737
8.84893	28.0722	11.9752	41.3297	40.8378	40.8914	40.4722
9.64204	28.0722	11.9752	40.3368	40.8045	40.8814	40.5137
10.4351	28.0722	11.9752	38.4554	40.7138	40.9234	40.4801
11.2282	28.0722	11.9752	33.3969	40.487	40.8791	40.3787
12.0213	28.0722	11.9752	25.2621	39.8652	40.7876	40.2449
12.8145	28.0722	11.9752	-30.731	38.4889	40.5645	39.9854
13.6076	28.0722	11.9752	0	36.6905	39.9137	39.6267
14.4007	28.0722	11.9752	0	34.7641	38.6005	38.929
15.1938	28.0722	11.9752	0	32.0063	36.0103	37.2892
15.9869	28.0722	11.9752	0	24.0868	28.1377	30.3514
16.78	28.0722	11.9752	0	0	0	0
17.5731	28.0722	11.9752	0	0	0	0
-5.42464	30.392	12.8341	41.0355	0	0	0
-4.63154	30.392	12.8341	41.426	0	0	32.9864
-3.83844	30.392	12.8341	41.7728	0	0	34.2605
-3.04533	30.392	12.8341	42.0556	0	29.3388	35.166
-2.25223	30.392	12.8341	42.2491	0	32.1965	35.9043
-1.45913	30.392	12.8341	42.3676	0	34.4149	36.5263
-0.666022	30.392	12.8341	42.4755	30.6096	35.9638	37.0729
0.127082	30.392	12.8341	42.5448	33.1194	36.9918	37.5576
0.920185	30.392	12.8341	42.5887	35.195	37.7336	38.0055
1.71329	30.392	12.8341	42.617	36.5661	38.353	38.4075
2.50639	30.392	12.8341	42.6328	37.4906	38.8468	38.7705
3.2995	30.392	12.8341	42.635	38.1975	39.2919	39.0771
4.0926	30.392	12.8341	42.6179	38.768	39.7168	39.3659
4.8857	30.392	12.8341	42.571	39.2687	40.0722	39.5503
5.67881	30.392	12.8341	42.4882	39.7062	40.3614	39.7978
6.47191	30.392	12.8341	42.3803	40.0988	40.5842	39.9782
7.26501	30.392	12.8341	42.1951	40.4248	40.6592	40.1359
8.05812	30.392	12.8341	41.8416	40.7362	40.7308	40.2579
8.85122	30.392	12.8341	41.2047	40.851	40.8895	40.3515
9.64432	30.392	12.8341	40.1707	40.8088	40.8785	40.3887
10.4374	30.392	12.8341	38.2847	40.7137	40.9199	40.3533
11.2305	30.392	12.8341	33.2265	40.4844	40.8754	40.2538
12.0236	30.392	12.8341	24.3349	39.8644	40.784	40.123
12.8167	30.392	12.8341	-36.3727	38.4887	40.5602	39.8675
13.6098	30.392	12.8341	0	36.6905	39.9116	39.5121
14.4029	30.392	12.8341	0	34.7643	38.6	38.8203
15.196	30.392	12.8341	0	32.0066	36.0102	37.1862
15.9892	30.392	12.8341	0	24.087	28.1376	30.2545
16.7823	30.392	12.8341	0	0	0	0
17.5754	30.392	12.8341	0	0	0	0
-5.42237	32.9034	13.7554	41.0261	0	0	0
-4.62927	32.9034	13.7554	41.413	0	0	32.9462
-3.83617	32.9034	13.7554	41.7538	0	0	34.2185
-3.04306	32.9034	13.7554	42.0268	0	29.3885	35.1207
-2.24996	32.9034	13.7554	42.2074	0	32.2456	35.8561
-1.45686	32.9034	13.7554	42.3142	0	34.4628	36.4756
-0.663752	32.9034	13.7554	42.416	30.6588	36.009	37.0196
0.129352	32.9034	13.7554	42.4812	33.1682	37.034	37.5014
0.922455	32.9034	13.7554	42.5232	35.2421	37.7728	37.9459
1.71556	32.9034	13.7554	42.5505	36.6108	38.3906	38.3433
2.50866	32.9034	13.7554	42.5659	37.5317	38.8834	38.7005
3.30177	32.9034	13.7554	42.5676	38.2362	39.3275	39
4.09487	32.9034	13.7554	42.5499	38.8052	39.7507	39.2815
4.88797	32.9034	13.7554	42.5021	39.3049	40.1023	39.4578
5.68108	32.9034	13.7554	42.4191	39.7413	40.3843	39.6982
6.47418	32.9034	13.7554	42.3085	40.1317	40.5982	39.8719
7.26728	32.9034	13.7554	42.1164	40.4528	40.6636	40.0238
8.06039	32.9034	13.7554	41.7492	40.7572	40.7302	40.1406
8.85349	32.9034	13.7554	41.0807	40.8619	40.8861	40.2295
9.64659	32.9034	13.7554	39.9951	40.8112	40.8743	40.2627
10.4397	32.9034	13.7554	38.1018	40.712	40.9151	40.2257
11.2328	32.9034	13.7554	33.045	40.4805	40.8706	40.1282
12.0259	32.9034	13.7554	23.3329	39.8624	40.7792	40.0002
12.819	32.9034	13.7554	-42.4787	38.4873	40.5548	39.7482
13.6121	32.9034	13.7554	0	36.6893	39.9083	39.3961
14.4052	32.9034	13.7554	0	34.7632	38.5984	38.7099
15.1983	32.9034	13.7554	0	32.0056	36.0089	37.0814
15.9914	32.9034	13.7554	0	24.0861	28.1364	30.1558
16.7845	32.9034	13.7554	0	0	0	0
17.5776	32.9034	13.7554	0	0	0	0
-5.42012	35.6225	14.7438	41.0153	0	0	0
-4.62701	35.6225	14.7438	41.3985	0	0	32.9031
-3.83391	35.6225	14.7438	41.7329	0	0	34.1737
-3.04081	35.6225	14.7438	41.9959	0	29.4352	35.0727
-2.2477	35.6225	14.7438	42.1639	0	32.2916	35.8054
-1.4546	35.6225	14.7438	42.2596	0	34.5076	36.4224
-0.661497	35.6225	14.7438	42.3556	30.7049	36.0512	36.9639
0.131606	35.6225	14.7438	42.4172	33.214	37.0733	37.4427
0.92471	35.6225	14.7438	42.4574	35.2862	37.8094	37.8838
1.71781	35.6225	14.7438	42.484	36.6525	38.4258	38.2765
2.51092	35.6225	14.7438	42.499	37.5701	38.9175	38.6279
3.30402	35.6225	14.7438	42.5004	38.2723	39.3607	38.9203
4.09712	35.6225	14.7438	42.4823	38.8398	39.782	39.1944
4.89023	35.6225	14.7438	42.4338	39.3387	40.1297	39.3627
5.68333	35.6225	14.7438	42.3512	39.7739	40.4045	39.5963
6.47643	35.6225	14.7438	42.2385	40.162	40.6094	39.7636
7.26954	35.6225	14.7438	42.04	40.4779	40.6657	39.9101
8.06264	35.6225	14.7438	41.66	40.7753	40.7277	40.0219
8.85574	35.6225	14.7438	40.9596	40.8701	40.8809	40.1062
9.64885	35.6225	14.7438	39.8104	40.8115	40.8686	40.1358
10.442	35.6225	14.7438	37.9058	40.7085	40.9088	40.0974
11.2351	35.6225	14.7438	32.851	40.475	40.8643	40.0017
12.0282	35.6225	14.7438	22.25	39.8588	40.7729	39.8765
12.8213	35.6225	14.7438	-49.0875	38.4843	40.548	39.6278
13.6144	35.6225	14.7438	0	36.6866	39.9035	39.2786
14.4075	35.6225	14.7438	0	34.7606	38.5952	38.5978
15.2006	35.6225	14.7438	0	32.0032	36.006	36.9747
15.9937	35.6225	14.7438	0	24.0837	28.1336	30.0554
16.7868	35.6225	14.7438	0	0	0	0
17.5799	35.6225	14.7438	0	0	0	0
-5.41788	38.5662	15.8041	41.0031	0	0	0
-4.62478	38.5662	15.8041	41.3824	0	0	32.8572
-3.83167	38.5662	15.8041	41.7101	0	0	34.1262
-3.03857	38.5662	15.8041	41.963	0	29.4784	35.0221
-2.24546	38.5662	15.8041	42.1185	0	32.3343	35.7522
-1.45236	38.5662	15.8041	42.2039	0	34.5491	36.3668
-0.659258	38.5662	15.8041	42.2944	30.7477	36.0901	36.9057
0.133845	38.5662	15.8041	42.3527	33.2564	37.1095	37.3817
0.926949	38.5662	15.8041	42.3914	35.327	37.8431	37.8193
1.72005	38.5662	15.8041	42.4174	36.6909	38.4581	38.2072
2.51316	38.5662	15.8041	42.4321	37.6054	38.9489	38.5527
3.30626	38.5662	15.8041	42.4333	38.3055	39.391	38.838
4.09936	38.5662	15.8041	42.4149	38.8717	39.8103	39.1047
4.89247	38.5662	15.8041	42.366	39.3697	40.1539	39.2652
5.68557	38.5662	15.8041	42.2843	39.8037	40.4214	39.4921
6.47867	38.5662	15.8041	42.1699	40.1893	40.6176	39.6534
7.27178	38.5662	15.8041	41.9657	40.4999	40.6651	39.7948
8.06488	38.5662	15.8041	41.574	40.7902	40.7228	39.9019
8.85798	38.5662	15.8041	40.8432	40.8753	40.8736	39.9819
9.65109	38.5662	15.8041	39.6176	40.8093	40.8608	40.0079
10.4442	38.5662	15.8041	37.6955	40.7028	40.9005	39.9684
11.2373	38.5662	15.8041	32.6433	40.4674	40.856	39.8745
12.0304	38.5662	15.8041	21.0794	39.8533	40.7646	39.7518
12.8235	38.5662	15.8041	-56.2406	38.4794	40.5391	39.5061
13.6166	38.5662	15.8041	0	36.6819	39.8967	39.1598
14.4097	38.5662	15.8041	0	34.7561	38.59	38.484
15.2028	38.5662	15.8041	0	31.9987	36.0012	36.8662
15.9959	38.5662	15.8041	0	24.0792	28.1289	29.9532
16.789	38.5662	15.8041	0	0	0	0
17.5821	38.5662	15.8041	0	0	0	0
-5.41566	41.7532	16.9417	40.9895	0	0	0
-4.62255	41.7532	16.9417	41.3646	0	0	32.8089
-3.82945	41.7532	16.9417	41.6854	0	0	34.0762
-3.03634	41.7532	16.9417	41.9279	0	29.5177	34.9692
-2.24324	41.7532	16.9417	42.0712	0	32.3729	35.6968
-1.45014	41.7532	16.9417	42.147	0	34.5865	36.3089
-0.657034	41.7532	16.9417	42.2323	30.7864	36.1251	36.8454
0.136069	41.7532	16.9417	42.2877	33.2947	37.1419	37.3184
0.929173	41.7532	16.9417	42.3251	35.3638	37.8731	37.7524
1.72228	41.7532	16.9417	42.3505	36.7254	38.4869	38.1355
2.51538	41.7532	16.9417	42.365	37.637	38.9767	38.475
3.30848	41.7532	16.9417	42.3661	38.3351	39.4177	38.7531
4.10159	41.7532	16.9417	42.3474	38.9001	39.8349	39.0125
4.89469	41.7532	16.9417	42.2983	39.3972	40.1743	39.1655
5.68779	41.7532	16.9417	42.2179	39.8299	40.4344	39.3859
6.4809	41.7532	16.9417	42.1023	40.2128	40.6219	39.5415
7.274	41.7532	16.9417	41.8929	40.5179	40.6611	39.678
8.0671	41.7532	16.9417	41.4911	40.8012	40.7147	39.7806
8.86021	41.7532	16.9417	40.7327	40.8768	40.8632	39.8566
9.65331	41.7532	16.9417	39.4187	40.8037	40.8501	39.8793
10.4464	41.7532	16.9417	37.4697	40.694	40.8893	39.8387
11.2395	41.7532	16.9417	32.4204	40.4569	40.8448	39.7465
12.0326	41.7532	16.9417	19.8139	39.8448	40.7535	39.6261
12.8257	41.7532	16.9417	-63.9829	38.4716	40.5274	39.3832
13.6188	41.7532	16.9417	0	36.6743	39.8871	39.0396
14.4119	41.7532	16.9417	0	34.7486	38.582	38.3686
15.205	41.7532	16.9417	0	31.9914	35.9935	36.7558
15.9981	41.7532	16.9417	0	24.0719	28.1212	29.8491
16.7912	41.7532	16.9417	0	0	0	0
17.5843	41.7532	16.9417	0	0	0	0
-5.41345	45.2035	18.1621	40.9746	0	0	0
-4.62034	45.2035	18.1621	41.3452	0	0	32.7582
-3.82724	45.2035	18.1621	41.6587	0	0	34.0239
-3.03414	45.2035	18.1621	41.8906	0	29.5515	34.9141
-2.24103	45.2035	18.1621	42.0222	0	32.4062	35.6391
-1.44793	45.2035	18.1621	42.0892	0	34.6186	36.2488
-0.654826	45.2035	18.1621	42.1697	30.8198	36.1548	36.7828
0.138278	45.2035	18.1621	42.2224	33.3277	37.1691	37.253
0.931381	45.2035	18.1621	42.2586	35.3952	37.8982	37.6834
1.72448	45.2035	18.1621	42.2835	36.7546	38.5107	38.0615
2.51759	45.2035	18.1621	42.2977	37.6634	38.9995	38.3949
3.31069	45.2035	18.1621	42.2987	38.3597	39.4393	38.6658
4.1038	45.2035	18.1621	42.2798	38.9235	39.8544	38.918
4.8969	45.2035	18.1621	42.2304	39.4196	40.1894	39.0635
5.69	45.2035	18.1621	42.1516	39.8509	40.4419	39.2776
6.48311	45.2035	18.1621	42.0351	40.2311	40.6209	39.4278
7.27621	45.2035	18.1621	41.8212	40.5306	40.6521	39.5597
8.06931	45.2035	18.1621	41.4107	40.8068	40.702	39.6581
8.86242	45.2035	18.1621	40.6287	40.8731	40.8483	39.7302
9.65552	45.2035	18.1621	39.2172	40.7932	40.835	39.7498
10.4486	45.2035	18.1621	37.2271	40.6806	40.8737	39.7083
11.2417	45.2035	18.1621	32.1811	40.442	40.8292	39.6177
12.0348	45.2035	18.1621	18.4456	39.8319	40.738	39.4995
12.8279	45.2035	18.1621	-72.3633	38.4594	40.5114	39.2591
13.621	45.2035	18.1621	0	36.6623	39.873	38.9179
14.4141	45.2035	18.1621	0	34.7368	38.5695	38.2514
15.2072	45.2035	18.1621	0	31.9797	35.9814	36.6435
16.0003	45.2035	18.1621	0	24.0602	28.1092	29.7432
16.7935	45.2035	18.1621	0	0	0	0
17.5866	45.2035	18.1621	0	0	0	0
-5.41125	48.939	19.4716	40.9584	0	0	0
-4.61815	48.939	19.4716	41.3242	0	0	32.7053
-3.82505	48.939	19.4716	41.63	0	0	33.9694
-3.03194	48.939	19.4716	41.8512	0	29.5756	34.8568
-2.23884	48.939	19.4716	41.9714	0	32.4297	35.5794
-1.44574	48.939	19.4716	42.0305	0	34.641	36.1867
-0.652632	48.939	19.4716	42.1064	30.8434	36.1748	36.7182
0.140472	48.939	19.4716	42.1567	33.351	37.1867	37.1854
0.933575	48.939	19.4716	42.1918	35.4169	37.9138	37.6121
1.72668	48.939	19.4716	42.2162	36.7741	38.5252	37.9851
2.51978	48.939	19.4716	42.2302	37.6804	39.013	38.3123
3.31289	48.939	19.4716	42.231	38.3749	39.4515	38.5761
4.10599	48.939	19.4716	42.2118	38.9375	39.8642	38.821
4.89909	48.939	19.4716	42.1622	39.4327	40.1947	38.9594
5.6922	48.939	19.4716	42.0849	39.8625	40.4396	39.1675
6.4853	48.939	19.4716	41.9678	40.2398	40.6102	39.3125
7.2784	48.939	19.4716	41.7498	40.5335	40.6337	39.4401
8.07151	48.939	19.4716	41.332	40.8025	40.6801	39.5345
8.86461	48.939	19.4716	40.5307	40.8597	40.8244	39.6029
9.65771	48.939	19.4716	39.0182	40.7735	40.811	39.6195
10.4508	48.939	19.4716	36.9664	40.6582	40.8493	39.5772
11.2439	48.939	19.4716	31.924	40.4181	40.8048	39.4882
12.037	48.939	19.4716	16.9661	39.8102	40.7136	39.3719
12.8301	48.939	19.4716	-81.4343	38.4383	40.4865	39.1338
13.6232	48.939	19.4716	0	36.6415	39.8502	38.7949
14.4163	48.939	19.4716	0	34.7161	38.5482	38.1326
15.2094	48.939	19.4716	0	31.9591	35.9604	36.5292
16.0025	48.939	19.4716	0	24.0396	28.0883	29.6354
16.7956	48.939	19.4716	0	0	0	0
17.5887	48.939	19.4716	0	0	0	0
-5.40907	52.9832	20.8767	40.9409	0	0	0
-4.61597	52.9832	20.8767	41.3016	0	0	32.6504
-3.82287	52.9832	20.8767	41.5994	0	0	33.9128
-3.02976	52.9832	20.8767	41.8096	0	29.5844	34.7976
-2.23666	52.9832	20.8767	41.9188	0	32.438	35.5176
-1.44356	52.9832	20.8767	41.971	0	34.6481	36.1226
-0.650453	52.9832	20.8767	42.0427	30.8517	36.1795	36.6516
0.142651	52.9832	20.8767	42.0908	33.359	37.1891	37.1158
0.935754	52.9832	20.8767	42.1248	35.4233	37.9143	37.5386
1.72886	52.9832	20.8767	42.1487	36.7784	38.5246	37.9065
2.52196	52.9832	20.8767	42.1624	37.6822	39.0114	38.2275
3.31506	52.9832	20.8767	42.1629	38.375	39.4486	38.484
4.10817	52.9832	20.8767	42.1433	38.9365	39.8589	38.7218
4.90127	52.9832	20.8767	42.0934	39.4307	40.1846	38.8533
5.69437	52.9832	20.8767	42.0176	39.859	40.4219	39.0555
6.48748	52.9832	20.8767	41.8999	40.2332	40.5841	39.1957
7.28058	52.9832	20.8767	41.678	40.521	40.6002	39.3191
8.07369	52.9832	20.8767	41.2538	40.7828	40.6435	39.4098
8.86679	52.9832	20.8767	40.4378	40.8311	40.7859	39.4746
9.65989	52.9832	20.8767	38.8282	40.7389	40.7724	39.4884
10.453	52.9832	20.8767	36.686	40.6211	40.8103	39.4455
11.2461	52.9832	20.8767	31.6475	40.3797	40.7659	39.3579
12.0392	52.9832	20.8767	15.3661	39.7739	40.6747	39.2433
12.8323	52.9832	20.8767	-91.2531	38.4026	40.4471	39.0072
13.6254	52.9832	20.8767	0	36.6061	39.8127	38.6704
14.4185	52.9832	20.8767	0	34.6809	38.5123	38.012
15.2116	52.9832	20.8767	0	31.9239	35.9249	36.4131
16.0047	52.9832	20.8767	0	24.0045	28.0528	29.5258
16.7978	52.9832	20.8767	0	0	0	0
17.5909	52.9832	20.8767	0	0	0	0
-5.40691	57.3615	22.3844	40.9222	0	0	0
-4.61381	57.3615	22.3844	41.2774	0	0	32.5935
-3.8207	57.3615	22.3844	41.5667	0	0	33.8544
-3.0276	57.3615	22.3844	41.7659	0	29.6029	34.7364
-2.23449	57.3615	22.3844	41.8645	0	32.4559	35.454
-1.44139	57.3615	22.3844	41.9109	0	34.6649	36.0566
-0.648288	57.3615	22.3844	41.9786	30.8698	36.194	36.5831
0.144815	57.3615	22.3844	42.0247	33.3767	37.2014	37.0442
0.937919	57.3615	22.3844	42.0577	35.4395	37.9248	37.4632
1.73102	57.3615	22.3844	42.081	36.7925	38.534	37.8256
2.52413	57.3615	22.3844	42.0944	37.6939	39.0198	38.1403
3.31723	57.3615	22.3844	42.0944	38.3852	39.4557	38.3896
4.11033	57.3615	22.3844	42.0742	38.9455	39.8632	38.6203
4.90344	57.3615	22.3844	42.0237	39.4387	40.184	38.7452
5.69654	57.3615	22.3844	41.9492	39.8654	40.4136	38.9417
6.48964	57.3615	22.3844	41.8308	40.2363	40.5678	39.0774
7.28275	57.3615	22.3844	41.6052	40.518	40.5768	39.197
8.07585	57.3615	22.3844	41.1754	40.7726	40.6171	39.2842
8.86895	57.3615	22.3844	40.3483	40.8122	40.7576	39.3455
9.66206	57.3615	22.3844	38.6537	40.7143	40.7442	39.3566
10.4552	57.3615	22.3844	36.3843	40.5942	40.7816	39.3132
11.2483	57.3615	22.3844	31.35	40.3517	40.7373	39.2269
12.0414	57.3615	22.3844	13.6358	39.7479	40.6462	39.1139
12.8345	57.3615	22.3844	-101.881	38.3774	40.4181	38.8795
13.6276	57.3615	22.3844	0	36.5811	39.7857	38.5446
14.4207	57.3615	22.3844	0	34.656	38.4868	37.8898
15.2138	57.3615	22.3844	0	31.8992	35.8997	36.2951
16.0069	57.3615	22.3844	0	23.9797	28.0278	29.4143
16.8	57.3615	22.3844	0	0	0	0
17.5931	57.3615	22.3844	0	0	0	0
-5.40476	62.1017	24.0024	40.9024	0	0	0
-4.61165	62.1017	24.0024	41.2517	0	0	32.5349
-3.81855	62.1017	24.0024	41.5321	0	0	33.7941
-3.02545	62.1017	24.0024	41.72	0	29.6233	34.6735
-2.23234	62.1017	24.0024	41.8087	0	32.4757	35.3886
-1.43924	62.1017	24.0024	41.8501	0	34.6835	35.9888
-0.646138	62.1017	24.0024	41.9143	30.8896	36.2104	36.5128
0.146966	62.1017	24.0024	41.9584	33.3962	37.2157	36.9708
0.940069	62.1017	24.0024	41.9905	35.4574	37.9373	37.3856
1.73317	62.1017	24.0024	42.0132	36.8085	38.5455	37.7426
2.52628	62.1017	24.0024	42.026	37.7075	39.0303	38.0508
3.31938	62.1017	24.0024	42.0255	38.3973	39.4646	38.293
4.11248	62.1017	24.0024	42.0045	38.9565	39.8694	38.5167
4.90559	62.1017	24.0024	41.9531	39.4487	40.1851	38.6352
5.69869	62.1017	24.0024	41.8795	39.8736	40.4069	38.8264
6.49179	62.1017	24.0024	41.7602	40.2412	40.5531	38.9578
7.2849	62.1017	24.0024	41.5309	40.5166	40.5554	39.0738
8.078	62.1017	24.0024	41.0958	40.764	40.593	39.1576
8.8711	62.1017	24.0024	40.2603	40.7951	40.7316	39.2156
9.66421	62.1017	24.0024	38.4987	40.6919	40.7185	39.2242
10.4573	62.1017	24.0024	36.0598	40.5697	40.7554	39.1803
11.2504	62.1017	24.0024	31.0297	40.326	40.7112	39.0952
12.0435	62.1017	24.0024	11.7644	39.7244	40.6202	38.9835
12.8366	62.1017	24.0024	-113.386	38.3546	40.3915	38.7507
13.6297	62.1017	24.0024	0	36.5585	39.7611	38.4175
14.4228	62.1017	24.0024	0	34.6336	38.4638	37.7659
15.2159	62.1017	24.0024	0	31.8768	35.877	36.1752
16.009	62.1017	24.0024	0	23.9573	28.0051	29.301
16.8021	62.1017	24.0024	0	0	0	0
17.5952	62.1017	24.0024	0	0	0	0
-5.40262	67.2336	25.7386	40.8815	0	0	0
-4.60952	67.2336	25.7386	41.2244	0	0	32.4747
-3.81642	67.2336	25.7386	41.4955	0	0	33.7322
-3.02331	67.2336	25.7386	41.6721	0	29.6438	34.6088
-2.23021	67.2336	25.7386	41.7512	0	32.4958	35.3216
-1.4371	67.2336	25.7386	41.7889	0	34.7024	35.9193
-0.644002	67.2336	25.7386	41.8498	30.9097	36.227	36.4407
0.149102	67.2336	25.7386	41.8921	33.416	37.2303	36.8955
0.942205	67.2336	25.7386	41.9232	35.4757	37.9503	37.3062
1.73531	67.2336	25.7386	41.9453	36.8247	38.5574	37.6576
2.52841	67.2336	25.7386	41.9575	37.7216	39.0412	37.9592
3.32152	67.2336	25.7386	41.9562	38.41	39.4739	38.1942
4.11462	67.2336	25.7386	41.9341	38.9681	39.8758	38.4111
4.90772	67.2336	25.7386	41.8815	39.4592	40.1863	38.5234
5.70083	67.2336	25.7386	41.8084	39.8822	40.4002	38.7095
6.49393	67.2336	25.7386	41.6879	40.2462	40.5385	38.837
7.28703	67.2336	25.7386	41.4547	40.5152	40.5344	38.9496
8.08014	67.2336	25.7386	41.0143	40.7554	40.5694	39.0301
8.87324	67.2336	25.7386	40.1724	40.7782	40.7064	39.085
9.66634	67.2336	25.7386	38.3633	40.67	40.6935	39.0911
10.4594	67.2336	25.7386	35.7106	40.5458	40.73	39.0468
11.2526	67.2336	25.7386	30.6849	40.3012	40.6859	38.9629
12.0457	67.2336	25.7386	9.74012	39.7016	40.5949	38.8522
12.8388	67.2336	25.7386	-125.84	38.3325	40.3658	38.6207
13.6319	67.2336	25.7386	0	36.5367	39.7373	38.2891
14.425	67.2336	25.7386	0	34.6119	38.4415	37.6404
15.2181	67.2336	25.7386	0	31.8553	35.8551	36.0534
16.0112	67.2336	25.7386	0	23.9358	27.9832	29.186
16.8043	67.2336	25.7386	0	0	0	0
17.5974	67.2336	25.7386	0	0	0	0
-5.4005	72.7895	27.602	40.8596	0	0	0
-4.6074	72.7895	27.602	41.1957	0	0	32.413
-3.81429	72.7895	27.602	41.4571	0	0	33.6687
-3.02119	72.7895	27.602	41.6222	0	29.6641	34.5427
-2.22809	72.7895	27.602	41.6923	0	32.5155	35.253
-1.43498	72.7895	27.602	41.7273	0	34.7211	35.8482
-0.641879	72.7895	27.602	41.7851	30.9296	36.2434	36.367
0.151224	72.7895	27.602	41.8258	33.4355	37.2447	36.8185
0.944328	72.7895	27.602	41.8559	35.4937	37.9631	37.2249
1.73743	72.7895	27.602	41.8772	36.8407	38.5692	37.5705
2.53053	72.7895	27.602	41.8887	37.7355	39.0519	37.8655
3.32364	72.7895	27.602	41.8865	38.4225	39.483	38.0933
4.11674	72.7895	27.602	41.8631	38.9795	39.8818	38.3034
4.90984	72.7895	27.602	41.8089	39.4694	40.1868	38.41
5.70295	72.7895	27.602	41.7357	39.8905	40.3929	38.5911
6.49605	72.7895	27.602	41.6136	40.2507	40.5235	38.7149
7.28916	72.7895	27.602	41.3762	40.5131	40.5132	38.8243
8.08226	72.7895	27.602	40.9302	40.7462	40.5459	38.9019
8.87536	72.7895	27.602	40.0828	40.7609	40.6812	38.9536
9.66847	72.7895	27.602	38.2436	40.648	40.6686	38.9575
10.4616	72.7895	27.602	35.3352	40.5219	40.7047	38.9128
11.2547	72.7895	27.602	30.3134	40.2764	40.6607	38.8298
12.0478	72.7895	27.602	7.55041	39.679	40.5698	38.7201
12.8409	72.7895	27.602	-139.321	38.3106	40.3402	38.4896
13.634	72.7895	27.602	0	36.5151	39.7137	38.1595
14.4271	72.7895	27.602	0	34.5904	38.4193	37.5134
15.2202	72.7895	27.602	0	31.8338	35.8333	35.9299
16.0133	72.7895	27.602	0	23.9144	27.9615	29.0692
16.8064	72.7895	27.602	0	0	0	0
17.5995	72.7895	27.602	0	0	0	0
-5.39839	78.8046	29.6018	40.8368	0	0	0
-4.60529	78.8046	29.6018	41.1657	0	0	32.3499
-3.81218	78.8046	29.6018	41.4169	0	0	33.6038
-3.01908	78.8046	29.6018	41.5704	0	29.6837	34.4751
-2.22598	78.8046	29.6018	41.632	0	32.5346	35.1829
-1.43287	78.8046	29.6018	41.6652	0	34.739	35.7757
-0.639771	78.8046	29.6018	41.7202	30.9487	36.2592	36.2918
0.153333	78.8046	29.6018	41.7595	33.4544	37.2585	36.74
0.946436	78.8046	29.6018	41.7886	35.511	37.9754	37.1418
1.73954	78.8046	29.6018	41.8091	36.8561	38.5805	37.4815
2.53264	78.8046	29.6018	41.8197	37.7488	39.062	37.7698
3.32575	78.8046	29.6018	41.8164	38.4344	39.4914	37.9905
4.11885	78.8046	29.6018	41.7914	38.9903	39.8869	38.1939
4.91195	78.8046	29.6018	41.7353	39.4791	40.1864	38.295
5.70506	78.8046	29.6018	41.6614	39.8981	40.3845	38.4714
6.49816	78.8046	29.6018	41.5373	40.2544	40.5076	38.5918
7.29126	78.8046	29.6018	41.2951	40.5101	40.4915	38.6982
8.08437	78.8046	29.6018	40.843	40.736	40.522	38.7728
8.87747	78.8046	29.6018	39.9906	40.7428	40.6557	38.8215
9.67057	78.8046	29.6018	38.134	40.6255	40.6436	38.8232
10.4637	78.8046	29.6018	34.9322	40.4978	40.6792	38.7782
11.2568	78.8046	29.6018	29.913	40.2514	40.6353	38.6961
12.0499	78.8046	29.6018	5.1816	39.6561	40.5445	38.5871
12.843	78.8046	29.6018	-153.914	38.2884	40.3144	38.3576
13.6361	78.8046	29.6018	0	36.4932	39.6898	38.0287
14.4292	78.8046	29.6018	0	34.5686	38.3969	37.3849
15.2223	78.8046	29.6018	0	31.8122	35.8112	35.8047
16.0154	78.8046	29.6018	0	23.8927	27.9395	28.9509
16.8085	78.8046	29.6018	0	0	0	0
17.6016	78.8046	29.6018	0	0	0	0
-5.3963	85.3168	31.7481	40.8132	0	0	0
-4.60319	85.3168	31.7481	41.1343	0	0	32.2855
-3.81009	85.3168	31.7481	41.3749	0	0	33.5376
-3.01699	85.3168	31.7481	41.5167	0	29.7024	34.4062
-2.22388	85.3168	31.7481	41.5704	0	32.5528	35.1116
-1.43078	85.3168	31.7481	41.6027	0	34.7561	35.7019
-0.637676	85.3168	31.7481	41.6552	30.967	36.2741	36.2153
0.155427	85.3168	31.7481	41.6931	33.4723	37.2715	36.6599
0.948531	85.3168	31.7481	41.7212	35.5274	37.9869	37.057
1.74163	85.3168	31.7481	41.7409	36.8707	38.5911	37.3907
2.53474	85.3168	31.7481	41.7506	37.7613	39.0714	37.6721
3.32784	85.3168	31.7481	41.746	38.4457	39.4989	37.8857
4.12094	85.3168	31.7481	41.7192	39.0005	39.891	38.0826
4.91405	85.3168	31.7481	41.6607	39.488	40.1847	38.1784
5.70715	85.3168	31.7481	41.5857	39.9047	40.3749	38.3504
6.50026	85.3168	31.7481	41.4589	40.2569	40.4907	38.4676
7.29336	85.3168	31.7481	41.2113	40.5058	40.469	38.5712
8.08646	85.3168	31.7481	40.7523	40.7246	40.4975	38.643
8.87957	85.3168	31.7481	39.8948	40.7238	40.6297	38.6888
9.67267	85.3168	31.7481	38.0289	40.6023	40.618	38.6884
10.4658	85.3168	31.7481	34.5019	40.473	40.6532	38.6432
11.2589	85.3168	31.7481	29.4814	40.2259	40.6095	38.5618
12.052	85.3168	31.7481	2.61889	39.6327	40.5186	38.4534
12.8451	85.3168	31.7481	-169.711	38.2658	40.2882	38.2245
13.6382	85.3168	31.7481	0	36.4707	39.6655	37.8968
14.4313	85.3168	31.7481	0	34.5463	38.374	37.255
15.2244	85.3168	31.7481	0	31.79	35.7886	35.6779
16.0175	85.3168	31.7481	0	23.8705	27.917	28.831
16.8106	85.3168	31.7481	0	0	0	0
17.6037	85.3168	31.7481	0	0	0	0
-5.39422	92.3671	34.0518	40.7888	0	0	0
-4.60111	92.3671	34.0518	41.1017	0	0	32.22
-3.80801	92.3671	34.0518	41.3314	0	0	33.4703
-3.0149	92.3671	34.0518	41.4614	0	29.7201	34.3362
-2.2218	92.3671	34.0518	41.5076	0	32.57	35.0391
-1.4287	92.3671	34.0518	41.5398	0	34.7722	35.6269
-0.635595	92.3671	34.0518	41.5901	30.9842	36.2881	36.1374
0.157509	92.3671	34.0518	41.6266	33.4892	37.2836	36.5784
0.950612	92.3671	34.0518	41.6538	35.5429	37.9976	36.9707
1.74372	92.3671	34.0518	41.6727	36.8842	38.6007	37.2981
2.53682	92.3671	34.0518	41.6813	37.7729	39.0798	37.5726
3.32992	92.3671	34.0518	41.6753	38.456	39.5053	37.7791
4.12303	92.3671	34.0518	41.6465	39.0097	39.8938	37.9697
4.91613	92.3671	34.0518	41.5854	39.4959	40.1817	38.0606
5.70923	92.3671	34.0518	41.5085	39.9102	40.3639	38.2282
6.50234	92.3671	34.0518	41.3785	40.2582	40.4725	38.3425
7.29544	92.3671	34.0518	41.1248	40.5001	40.4455	38.4433
8.08854	92.3671	34.0518	40.6577	40.7118	40.4721	38.5125
8.88165	92.3671	34.0518	39.7946	40.7036	40.6029	38.5555
9.67475	92.3671	34.0518	37.9241	40.5782	40.5917	38.553
10.4679	92.3671	34.0518	34.0477	40.4475	40.6265	38.5076
11.261	92.3671	34.0518	29.016	40.1997	40.5829	38.4268
12.0541	92.3671	34.0518	-0.153751	39.6086	40.4921	38.3189
12.8472	92.3671	34.0518	-186.812	38.2424	40.2613	38.0906
13.6403	92.3671	34.0518	0	36.4476	39.6404	37.7639
14.4334	92.3671	34.0518	0	34.5234	38.3504	37.1238
15.2265	92.3671	34.0518	0	31.7671	35.7653	35.5497
16.0196	92.3671	34.0518	0	23.8476	27.8938	28.7097
16.8127	92.3671	34.0518	0	0	0	0
17.6058	92.3671	34.0518	0	0	0	0
-5.39215	100	36.5246	0	0	0	0
-4.59904	100	36.5246	0	0	0	0
-3.80594	100	36.5246	0	0	0	0
-3.01284	100	36.5246	0	0	0	0
-2.21973	100	36.5246	0	0	0	0
-1.42663	100	36.5246	0	0	0	0
-0.633526	100	36.5246	0	0	0	0
0.159577	100	36.5246	0	0	0	0
0.95268	100	36.5246	0	0	0	0
1.74578	100	36.5246	0	0	0	0
2.53889	100	36.5246	0	0	0	0
3.33199	100	36.5246	0	0	0	0
4.12509	100	36.5246	0	0	0	0
4.9182	100	36.5246	0	0	0	0
5.7113	100	36.5246	0	0	0	0
6.5044	100	36.5246	0	0	0	0
7.29751	100	36.5246	0	0	0	0
8.09061	100	36.5246	0	0	0	0
8.88371	100	36.5246	0	0	0	0
9.67682	100	36.5246	0	0	0	0
10.4699	100	36.5246	0	0	0	0
11.263	100	36.5246	0	0	0	0
12.0561	100	36.5246	0	0	0	0
12.8492	100	36.5246	0	0	0	0
13.6423	100	36.5246	0	0	0	0
14.4354	100	36.5246	0	0	0	0
15.2285	100	36.5246	0	0	0	0
16.0216	100	36.5246	0	0	0	0
16.8147	100	36.5246	0	0	0	0
17.6079	100	36.5246	0	0	0	0
