log(E / eV)	log(z / pc)	t / yr	 logQ
6	1	32.7213	57.4963
6.37931	1	32.7213	57.93
6.75862	1	32.7213	57.6873
7.13793	1	32.7213	57.1459
7.51724	1	32.7213	56.4782
7.89655	1	32.7213	55.7576
8.27586	1	32.7213	55.0148
8.65517	1	32.7213	54.2628
9.03448	1	32.7213	53.507
9.41379	1	32.7213	52.7495
9.7931	1	32.7213	51.9914
10.1724	1	32.7213	51.2329
10.5517	1	32.7213	50.4744
10.931	1	32.7213	49.7152
11.3103	1	32.7213	48.9377
11.6897	1	32.7213	48.0914
12.069	1	32.7213	47.1407
12.4483	1	32.7213	46.0969
12.8276	1	32.7213	44.9898
13.2069	1	32.7213	43.8378
13.5862	1	32.7213	42.6399
13.9655	1	32.7213	41.3731
14.3448	1	32.7213	39.982
14.7241	1	32.7213	38.3449
15.1034	1	32.7213	36.1457
15.4828	1	32.7213	32.5174
15.8621	1	32.7213	25.4167
16.2414	1	32.7213	9.9978
16.6207	1	32.7213	-25.3435
17	1	32.7213	-inf
6	1.03448	35.4253	57.6491
6.37931	1.03448	35.4253	57.6876
6.75862	1.03448	35.4253	57.3539
7.13793	1.03448	35.4253	56.7862
7.51724	1.03448	35.4253	56.1092
7.89655	1.03448	35.4253	55.3849
8.27586	1.03448	35.4253	54.6407
8.65517	1.03448	35.4253	53.8881
9.03448	1.03448	35.4253	53.132
9.41379	1.03448	35.4253	52.3744
9.7931	1.03448	35.4253	51.6159
10.1724	1.03448	35.4253	50.853
10.5517	1.03448	35.4253	50.0675
10.931	1.03448	35.4253	49.2188
11.3103	1.03448	35.4253	48.2753
11.6897	1.03448	35.4253	47.2441
12.069	1.03448	35.4253	46.1546
12.4483	1.03448	35.4253	45.0313
12.8276	1.03448	35.4253	43.8856
13.2069	1.03448	35.4253	42.7164
13.5862	1.03448	35.4253	41.5112
13.9655	1.03448	35.4253	40.2413
14.3448	1.03448	35.4253	38.849
14.7241	1.03448	35.4253	37.2115
15.1034	1.03448	35.4253	35.012
15.4828	1.03448	35.4253	31.3837
15.8621	1.03448	35.4253	24.283
16.2414	1.03448	35.4253	8.86406
16.6207	1.03448	35.4253	-26.4772
17	1.03448	35.4253	-inf
6	1.06897	38.3527	57.6301
6.37931	1.06897	38.3527	57.6828
6.75862	1.06897	38.3527	57.3533
7.13793	1.06897	38.3527	56.7868
7.51724	1.06897	38.3527	56.1102
7.89655	1.06897	38.3527	55.3862
8.27586	1.06897	38.3527	54.642
8.65517	1.06897	38.3527	53.8895
9.03448	1.06897	38.3527	53.1334
9.41379	1.06897	38.3527	52.3758
9.7931	1.06897	38.3527	51.6173
10.1724	1.06897	38.3527	50.8544
10.5517	1.06897	38.3527	50.0682
10.931	1.06897	38.3527	49.2173
11.3103	1.06897	38.3527	48.271
11.6897	1.06897	38.3527	47.2375
12.069	1.06897	38.3527	46.1467
12.4483	1.06897	38.3527	45.0228
12.8276	1.06897	38.3527	43.8767
13.2069	1.06897	38.3527	42.7074
13.5862	1.06897	38.3527	41.5022
13.9655	1.06897	38.3527	40.2323
14.3448	1.06897	38.3527	38.84
14.7241	1.06897	38.3527	37.2025
15.1034	1.06897	38.3527	35.003
15.4828	1.06897	38.3527	31.3746
15.8621	1.06897	38.3527	24.2739
16.2414	1.06897	38.3527	8.85502
16.6207	1.06897	38.3527	-26.4862
17	1.06897	38.3527	-inf
6	1.10345	41.5221	57.6111
6.37931	1.10345	41.5221	57.6779
6.75862	1.10345	41.5221	57.3524
7.13793	1.10345	41.5221	56.7872
7.51724	1.10345	41.5221	56.1111
7.89655	1.10345	41.5221	55.3872
8.27586	1.10345	41.5221	54.6431
8.65517	1.10345	41.5221	53.8906
9.03448	1.10345	41.5221	53.1345
9.41379	1.10345	41.5221	52.3769
9.7931	1.10345	41.5221	51.6184
10.1724	1.10345	41.5221	50.8555
10.5517	1.10345	41.5221	50.0686
10.931	1.10345	41.5221	49.2156
11.3103	1.10345	41.5221	48.2665
11.6897	1.10345	41.5221	47.2308
12.069	1.10345	41.5221	46.1387
12.4483	1.10345	41.5221	45.0142
12.8276	1.10345	41.5221	43.8679
13.2069	1.10345	41.5221	42.6985
13.5862	1.10345	41.5221	41.4932
13.9655	1.10345	41.5221	40.2233
14.3448	1.10345	41.5221	38.831
14.7241	1.10345	41.5221	37.1935
15.1034	1.10345	41.5221	34.994
15.4828	1.10345	41.5221	31.3656
15.8621	1.10345	41.5221	24.2649
16.2414	1.10345	41.5221	8.84603
16.6207	1.10345	41.5221	-26.4952
17	1.10345	41.5221	-inf
6	1.13793	44.9533	57.5919
6.37931	1.13793	44.9533	57.6729
6.75862	1.13793	44.9533	57.3514
7.13793	1.13793	44.9533	56.7873
7.51724	1.13793	44.9533	56.1117
7.89655	1.13793	44.9533	55.388
8.27586	1.13793	44.9533	54.644
8.65517	1.13793	44.9533	53.8915
9.03448	1.13793	44.9533	53.1354
9.41379	1.13793	44.9533	52.3778
9.7931	1.13793	44.9533	51.6193
10.1724	1.13793	44.9533	50.8564
10.5517	1.13793	44.9533	50.0687
10.931	1.13793	44.9533	49.2137
11.3103	1.13793	44.9533	48.2618
11.6897	1.13793	44.9533	47.2241
12.069	1.13793	44.9533	46.1308
12.4483	1.13793	44.9533	45.0057
12.8276	1.13793	44.9533	43.8592
13.2069	1.13793	44.9533	42.6897
13.5862	1.13793	44.9533	41.4843
13.9655	1.13793	44.9533	40.2144
14.3448	1.13793	44.9533	38.822
14.7241	1.13793	44.9533	37.1845
15.1034	1.13793	44.9533	34.9851
15.4828	1.13793	44.9533	31.3567
15.8621	1.13793	44.9533	24.256
16.2414	1.13793	44.9533	8.83709
16.6207	1.13793	44.9533	-26.5042
17	1.13793	44.9533	-inf
6	1.17241	48.6681	57.5727
6.37931	1.17241	48.6681	57.6678
6.75862	1.17241	48.6681	57.3502
7.13793	1.17241	48.6681	56.7873
7.51724	1.17241	48.6681	56.1121
7.89655	1.17241	48.6681	55.3885
8.27586	1.17241	48.6681	54.6446
8.65517	1.17241	48.6681	53.8921
9.03448	1.17241	48.6681	53.1361
9.41379	1.17241	48.6681	52.3785
9.7931	1.17241	48.6681	51.62
10.1724	1.17241	48.6681	50.8571
10.5517	1.17241	48.6681	50.0687
10.931	1.17241	48.6681	49.2115
11.3103	1.17241	48.6681	48.257
11.6897	1.17241	48.6681	47.2172
12.069	1.17241	48.6681	46.1228
12.4483	1.17241	48.6681	44.9973
12.8276	1.17241	48.6681	43.8505
13.2069	1.17241	48.6681	42.6808
13.5862	1.17241	48.6681	41.4754
13.9655	1.17241	48.6681	40.2055
14.3448	1.17241	48.6681	38.8132
14.7241	1.17241	48.6681	37.1756
15.1034	1.17241	48.6681	34.9762
15.4828	1.17241	48.6681	31.3478
15.8621	1.17241	48.6681	24.2471
16.2414	1.17241	48.6681	8.82819
16.6207	1.17241	48.6681	-26.5131
17	1.17241	48.6681	-inf
6	1.2069	52.6899	57.5536
6.37931	1.2069	52.6899	57.6626
6.75862	1.2069	52.6899	57.3488
7.13793	1.2069	52.6899	56.7871
7.51724	1.2069	52.6899	56.1123
7.89655	1.2069	52.6899	55.3889
8.27586	1.2069	52.6899	54.645
8.65517	1.2069	52.6899	53.8926
9.03448	1.2069	52.6899	53.1365
9.41379	1.2069	52.6899	52.379
9.7931	1.2069	52.6899	51.6205
10.1724	1.2069	52.6899	50.8576
10.5517	1.2069	52.6899	50.0684
10.931	1.2069	52.6899	49.2091
11.3103	1.2069	52.6899	48.252
11.6897	1.2069	52.6899	47.2104
12.069	1.2069	52.6899	46.1149
12.4483	1.2069	52.6899	44.9888
12.8276	1.2069	52.6899	43.8418
13.2069	1.2069	52.6899	42.672
13.5862	1.2069	52.6899	41.4666
13.9655	1.2069	52.6899	40.1967
14.3448	1.2069	52.6899	38.8043
14.7241	1.2069	52.6899	37.1668
15.1034	1.2069	52.6899	34.9673
15.4828	1.2069	52.6899	31.3389
15.8621	1.2069	52.6899	24.2382
16.2414	1.2069	52.6899	8.81933
16.6207	1.2069	52.6899	-26.5219
17	1.2069	52.6899	-inf
6	1.24138	57.044	57.5344
6.37931	1.24138	57.044	57.6574
6.75862	1.24138	57.044	57.3473
7.13793	1.24138	57.044	56.7867
7.51724	1.24138	57.044	56.1123
7.89655	1.24138	57.044	55.3891
8.27586	1.24138	57.044	54.6453
8.65517	1.24138	57.044	53.8928
9.03448	1.24138	57.044	53.1368
9.41379	1.24138	57.044	52.3792
9.7931	1.24138	57.044	51.6208
10.1724	1.24138	57.044	50.8578
10.5517	1.24138	57.044	50.0679
10.931	1.24138	57.044	49.2065
11.3103	1.24138	57.044	48.247
11.6897	1.24138	57.044	47.2034
12.069	1.24138	57.044	46.1069
12.4483	1.24138	57.044	44.9804
12.8276	1.24138	57.044	43.8331
13.2069	1.24138	57.044	42.6633
13.5862	1.24138	57.044	41.4578
13.9655	1.24138	57.044	40.1879
14.3448	1.24138	57.044	38.7955
14.7241	1.24138	57.044	37.158
15.1034	1.24138	57.044	34.9585
15.4828	1.24138	57.044	31.3301
15.8621	1.24138	57.044	24.2294
16.2414	1.24138	57.044	8.81053
16.6207	1.24138	57.044	-26.5307
17	1.24138	57.044	-inf
6	1.27586	61.7579	57.5154
6.37931	1.27586	61.7579	57.6522
6.75862	1.27586	61.7579	57.3457
7.13793	1.27586	61.7579	56.7862
7.51724	1.27586	61.7579	56.1121
7.89655	1.27586	61.7579	55.389
8.27586	1.27586	61.7579	54.6453
8.65517	1.27586	61.7579	53.8929
9.03448	1.27586	61.7579	53.1369
9.41379	1.27586	61.7579	52.3793
9.7931	1.27586	61.7579	51.6209
10.1724	1.27586	61.7579	50.8578
10.5517	1.27586	61.7579	50.0671
10.931	1.27586	61.7579	49.2037
11.3103	1.27586	61.7579	48.2418
11.6897	1.27586	61.7579	47.1965
12.069	1.27586	61.7579	46.099
12.4483	1.27586	61.7579	44.9719
12.8276	1.27586	61.7579	43.8245
13.2069	1.27586	61.7579	42.6546
13.5862	1.27586	61.7579	41.4491
13.9655	1.27586	61.7579	40.1791
14.3448	1.27586	61.7579	38.7867
14.7241	1.27586	61.7579	37.1492
15.1034	1.27586	61.7579	34.9498
15.4828	1.27586	61.7579	31.3214
15.8621	1.27586	61.7579	24.2207
16.2414	1.27586	61.7579	8.80176
16.6207	1.27586	61.7579	-26.5395
17	1.27586	61.7579	-inf
6	1.31034	66.8614	57.4965
6.37931	1.31034	66.8614	57.6469
6.75862	1.31034	66.8614	57.3439
7.13793	1.31034	66.8614	56.7854
7.51724	1.31034	66.8614	56.1118
7.89655	1.31034	66.8614	55.3888
8.27586	1.31034	66.8614	54.6451
8.65517	1.31034	66.8614	53.8927
9.03448	1.31034	66.8614	53.1367
9.41379	1.31034	66.8614	52.3792
9.7931	1.31034	66.8614	51.6208
10.1724	1.31034	66.8614	50.8577
10.5517	1.31034	66.8614	50.0662
10.931	1.31034	66.8614	49.2008
11.3103	1.31034	66.8614	48.2365
11.6897	1.31034	66.8614	47.1895
12.069	1.31034	66.8614	46.0911
12.4483	1.31034	66.8614	44.9636
12.8276	1.31034	66.8614	43.8159
13.2069	1.31034	66.8614	42.6459
13.5862	1.31034	66.8614	41.4404
13.9655	1.31034	66.8614	40.1704
14.3448	1.31034	66.8614	38.778
14.7241	1.31034	66.8614	37.1405
15.1034	1.31034	66.8614	34.941
15.4828	1.31034	66.8614	31.3126
15.8621	1.31034	66.8614	24.212
16.2414	1.31034	66.8614	8.79304
16.6207	1.31034	66.8614	-26.5482
17	1.31034	66.8614	-inf
6	1.34483	72.3866	57.4778
6.37931	1.34483	72.3866	57.6416
6.75862	1.34483	72.3866	57.342
7.13793	1.34483	72.3866	56.7846
7.51724	1.34483	72.3866	56.1112
7.89655	1.34483	72.3866	55.3884
8.27586	1.34483	72.3866	54.6448
8.65517	1.34483	72.3866	53.8924
9.03448	1.34483	72.3866	53.1364
9.41379	1.34483	72.3866	52.3789
9.7931	1.34483	72.3866	51.6205
10.1724	1.34483	72.3866	50.8574
10.5517	1.34483	72.3866	50.0651
10.931	1.34483	72.3866	49.1977
11.3103	1.34483	72.3866	48.231
11.6897	1.34483	72.3866	47.1824
12.069	1.34483	72.3866	46.0831
12.4483	1.34483	72.3866	44.9552
12.8276	1.34483	72.3866	43.8074
13.2069	1.34483	72.3866	42.6373
13.5862	1.34483	72.3866	41.4317
13.9655	1.34483	72.3866	40.1617
14.3448	1.34483	72.3866	38.7693
14.7241	1.34483	72.3866	37.1318
15.1034	1.34483	72.3866	34.9324
15.4828	1.34483	72.3866	31.304
15.8621	1.34483	72.3866	24.2033
16.2414	1.34483	72.3866	8.78436
16.6207	1.34483	72.3866	-26.5569
17	1.34483	72.3866	-inf
6	1.37931	78.3684	57.4592
6.37931	1.37931	78.3684	57.6363
6.75862	1.37931	78.3684	57.34
7.13793	1.37931	78.3684	56.7835
7.51724	1.37931	78.3684	56.1105
7.89655	1.37931	78.3684	55.3879
8.27586	1.37931	78.3684	54.6443
8.65517	1.37931	78.3684	53.892
9.03448	1.37931	78.3684	53.136
9.41379	1.37931	78.3684	52.3784
9.7931	1.37931	78.3684	51.6201
10.1724	1.37931	78.3684	50.8569
10.5517	1.37931	78.3684	50.0638
10.931	1.37931	78.3684	49.1944
11.3103	1.37931	78.3684	48.2255
11.6897	1.37931	78.3684	47.1753
12.069	1.37931	78.3684	46.0752
12.4483	1.37931	78.3684	44.9469
12.8276	1.37931	78.3684	43.7989
13.2069	1.37931	78.3684	42.6287
13.5862	1.37931	78.3684	41.4231
13.9655	1.37931	78.3684	40.1531
14.3448	1.37931	78.3684	38.7607
14.7241	1.37931	78.3684	37.1232
15.1034	1.37931	78.3684	34.9237
15.4828	1.37931	78.3684	31.2953
15.8621	1.37931	78.3684	24.1946
16.2414	1.37931	78.3684	8.77573
16.6207	1.37931	78.3684	-26.5655
17	1.37931	78.3684	-inf
6	1.41379	84.8445	57.4409
6.37931	1.41379	84.8445	57.631
6.75862	1.41379	84.8445	57.3379
7.13793	1.41379	84.8445	56.7824
7.51724	1.41379	84.8445	56.1097
7.89655	1.41379	84.8445	55.3872
8.27586	1.41379	84.8445	54.6436
8.65517	1.41379	84.8445	53.8913
9.03448	1.41379	84.8445	53.1353
9.41379	1.41379	84.8445	52.3778
9.7931	1.41379	84.8445	51.6195
10.1724	1.41379	84.8445	50.8562
10.5517	1.41379	84.8445	50.0623
10.931	1.41379	84.8445	49.191
11.3103	1.41379	84.8445	48.2199
11.6897	1.41379	84.8445	47.1682
12.069	1.41379	84.8445	46.0673
12.4483	1.41379	84.8445	44.9386
12.8276	1.41379	84.8445	43.7904
13.2069	1.41379	84.8445	42.6202
13.5862	1.41379	84.8445	41.4146
13.9655	1.41379	84.8445	40.1445
14.3448	1.41379	84.8445	38.7521
14.7241	1.41379	84.8445	37.1146
15.1034	1.41379	84.8445	34.9151
15.4828	1.41379	84.8445	31.2867
15.8621	1.41379	84.8445	24.186
16.2414	1.41379	84.8445	8.76713
16.6207	1.41379	84.8445	-26.5741
17	1.41379	84.8445	-inf
6	1.44828	91.8558	57.4228
6.37931	1.44828	91.8558	57.6258
6.75862	1.44828	91.8558	57.3357
7.13793	1.44828	91.8558	56.7811
7.51724	1.44828	91.8558	56.1087
7.89655	1.44828	91.8558	55.3863
8.27586	1.44828	91.8558	54.6428
8.65517	1.44828	91.8558	53.8905
9.03448	1.44828	91.8558	53.1346
9.41379	1.44828	91.8558	52.377
9.7931	1.44828	91.8558	51.6187
10.1724	1.44828	91.8558	50.8554
10.5517	1.44828	91.8558	50.0606
10.931	1.44828	91.8558	49.1874
11.3103	1.44828	91.8558	48.2143
11.6897	1.44828	91.8558	47.1611
12.069	1.44828	91.8558	46.0593
12.4483	1.44828	91.8558	44.9303
12.8276	1.44828	91.8558	43.782
13.2069	1.44828	91.8558	42.6117
13.5862	1.44828	91.8558	41.406
13.9655	1.44828	91.8558	40.136
14.3448	1.44828	91.8558	38.7436
14.7241	1.44828	91.8558	37.106
15.1034	1.44828	91.8558	34.9066
15.4828	1.44828	91.8558	31.2782
15.8621	1.44828	91.8558	24.1775
16.2414	1.44828	91.8558	8.75858
16.6207	1.44828	91.8558	-26.5827
17	1.44828	91.8558	-inf
6	1.48276	99.4465	57.405
6.37931	1.48276	99.4465	57.6205
6.75862	1.48276	99.4465	57.3335
7.13793	1.48276	99.4465	56.7796
7.51724	1.48276	99.4465	56.1076
7.89655	1.48276	99.4465	55.3853
8.27586	1.48276	99.4465	54.6419
8.65517	1.48276	99.4465	53.8896
9.03448	1.48276	99.4465	53.1336
9.41379	1.48276	99.4465	52.3761
9.7931	1.48276	99.4465	51.6178
10.1724	1.48276	99.4465	50.8544
10.5517	1.48276	99.4465	50.0588
10.931	1.48276	99.4465	49.1837
11.3103	1.48276	99.4465	48.2085
11.6897	1.48276	99.4465	47.1539
12.069	1.48276	99.4465	46.0514
12.4483	1.48276	99.4465	44.922
12.8276	1.48276	99.4465	43.7736
13.2069	1.48276	99.4465	42.6032
13.5862	1.48276	99.4465	41.3975
13.9655	1.48276	99.4465	40.1275
14.3448	1.48276	99.4465	38.7351
14.7241	1.48276	99.4465	37.0975
15.1034	1.48276	99.4465	34.8981
15.4828	1.48276	99.4465	31.2697
15.8621	1.48276	99.4465	24.169
16.2414	1.48276	99.4465	8.75007
16.6207	1.48276	99.4465	-26.5912
17	1.48276	99.4465	-inf
6	1.51724	107.664	57.3874
6.37931	1.51724	107.664	57.6153
6.75862	1.51724	107.664	57.3311
7.13793	1.51724	107.664	56.7781
7.51724	1.51724	107.664	56.1063
7.89655	1.51724	107.664	55.3842
8.27586	1.51724	107.664	54.6408
8.65517	1.51724	107.664	53.8885
9.03448	1.51724	107.664	53.1326
9.41379	1.51724	107.664	52.375
9.7931	1.51724	107.664	51.6168
10.1724	1.51724	107.664	50.8533
10.5517	1.51724	107.664	50.0568
10.931	1.51724	107.664	49.1798
11.3103	1.51724	107.664	48.2027
11.6897	1.51724	107.664	47.1468
12.069	1.51724	107.664	46.0436
12.4483	1.51724	107.664	44.9138
12.8276	1.51724	107.664	43.7652
13.2069	1.51724	107.664	42.5948
13.5862	1.51724	107.664	41.3891
13.9655	1.51724	107.664	40.119
14.3448	1.51724	107.664	38.7266
14.7241	1.51724	107.664	37.0891
15.1034	1.51724	107.664	34.8896
15.4828	1.51724	107.664	31.2612
15.8621	1.51724	107.664	24.1605
16.2414	1.51724	107.664	8.7416
16.6207	1.51724	107.664	-26.5997
17	1.51724	107.664	-inf
6	1.55172	116.561	57.3702
6.37931	1.55172	116.561	57.6101
6.75862	1.55172	116.561	57.3287
7.13793	1.55172	116.561	56.7764
7.51724	1.55172	116.561	56.105
7.89655	1.55172	116.561	55.3829
8.27586	1.55172	116.561	54.6395
8.65517	1.55172	116.561	53.8873
9.03448	1.55172	116.561	53.1314
9.41379	1.55172	116.561	52.3738
9.7931	1.55172	116.561	51.6156
10.1724	1.55172	116.561	50.852
10.5517	1.55172	116.561	50.0547
10.931	1.55172	116.561	49.1759
11.3103	1.55172	116.561	48.1968
11.6897	1.55172	116.561	47.1396
12.069	1.55172	116.561	46.0357
12.4483	1.55172	116.561	44.9056
12.8276	1.55172	116.561	43.7569
13.2069	1.55172	116.561	42.5864
13.5862	1.55172	116.561	41.3807
13.9655	1.55172	116.561	40.1106
14.3448	1.55172	116.561	38.7182
14.7241	1.55172	116.561	37.0806
15.1034	1.55172	116.561	34.8812
15.4828	1.55172	116.561	31.2528
15.8621	1.55172	116.561	24.1521
16.2414	1.55172	116.561	8.73318
16.6207	1.55172	116.561	-26.6081
17	1.55172	116.561	-inf
6	1.58621	126.194	57.3534
6.37931	1.58621	126.194	57.605
6.75862	1.58621	126.194	57.3261
7.13793	1.58621	126.194	56.7747
7.51724	1.58621	126.194	56.1035
7.89655	1.58621	126.194	55.3815
8.27586	1.58621	126.194	54.6382
8.65517	1.58621	126.194	53.886
9.03448	1.58621	126.194	53.13
9.41379	1.58621	126.194	52.3725
9.7931	1.58621	126.194	51.6143
10.1724	1.58621	126.194	50.8506
10.5517	1.58621	126.194	50.0525
10.931	1.58621	126.194	49.1718
11.3103	1.58621	126.194	48.1908
11.6897	1.58621	126.194	47.1324
12.069	1.58621	126.194	46.0278
12.4483	1.58621	126.194	44.8975
12.8276	1.58621	126.194	43.7486
13.2069	1.58621	126.194	42.5781
13.5862	1.58621	126.194	41.3723
13.9655	1.58621	126.194	40.1022
14.3448	1.58621	126.194	38.7098
14.7241	1.58621	126.194	37.0722
15.1034	1.58621	126.194	34.8728
15.4828	1.58621	126.194	31.2444
15.8621	1.58621	126.194	24.1437
16.2414	1.58621	126.194	8.72479
16.6207	1.58621	126.194	-26.6165
17	1.58621	126.194	-inf
6	1.62069	136.622	57.3368
6.37931	1.62069	136.622	57.5999
6.75862	1.62069	136.622	57.3236
7.13793	1.62069	136.622	56.7728
7.51724	1.62069	136.622	56.1019
7.89655	1.62069	136.622	55.38
8.27586	1.62069	136.622	54.6367
8.65517	1.62069	136.622	53.8845
9.03448	1.62069	136.622	53.1286
9.41379	1.62069	136.622	52.3711
9.7931	1.62069	136.622	51.6129
10.1724	1.62069	136.622	50.8491
10.5517	1.62069	136.622	50.0501
10.931	1.62069	136.622	49.1676
11.3103	1.62069	136.622	48.1848
11.6897	1.62069	136.622	47.1252
12.069	1.62069	136.622	46.02
12.4483	1.62069	136.622	44.8893
12.8276	1.62069	136.622	43.7403
13.2069	1.62069	136.622	42.5698
13.5862	1.62069	136.622	41.364
13.9655	1.62069	136.622	40.0939
14.3448	1.62069	136.622	38.7015
14.7241	1.62069	136.622	37.0639
15.1034	1.62069	136.622	34.8644
15.4828	1.62069	136.622	31.236
15.8621	1.62069	136.622	24.1354
16.2414	1.62069	136.622	8.71644
16.6207	1.62069	136.622	-26.6248
17	1.62069	136.622	-inf
6	1.65517	147.912	57.3207
6.37931	1.65517	147.912	57.5948
6.75862	1.65517	147.912	57.3209
7.13793	1.65517	147.912	56.7709
7.51724	1.65517	147.912	56.1002
7.89655	1.65517	147.912	55.3784
8.27586	1.65517	147.912	54.6352
8.65517	1.65517	147.912	53.883
9.03448	1.65517	147.912	53.127
9.41379	1.65517	147.912	52.3695
9.7931	1.65517	147.912	51.6113
10.1724	1.65517	147.912	50.8475
10.5517	1.65517	147.912	50.0476
10.931	1.65517	147.912	49.1633
11.3103	1.65517	147.912	48.1788
11.6897	1.65517	147.912	47.1179
12.069	1.65517	147.912	46.0122
12.4483	1.65517	147.912	44.8812
12.8276	1.65517	147.912	43.7321
13.2069	1.65517	147.912	42.5615
13.5862	1.65517	147.912	41.3557
13.9655	1.65517	147.912	40.0856
14.3448	1.65517	147.912	38.6931
14.7241	1.65517	147.912	37.0556
15.1034	1.65517	147.912	34.8561
15.4828	1.65517	147.912	31.2277
15.8621	1.65517	147.912	24.127
16.2414	1.65517	147.912	8.70813
16.6207	1.65517	147.912	-26.6331
17	1.65517	147.912	-inf
6	1.68966	160.135	57.3049
6.37931	1.68966	160.135	57.5898
6.75862	1.68966	160.135	57.3183
7.13793	1.68966	160.135	56.7689
7.51724	1.68966	160.135	56.0984
7.89655	1.68966	160.135	55.3767
8.27586	1.68966	160.135	54.6335
8.65517	1.68966	160.135	53.8813
9.03448	1.68966	160.135	53.1254
9.41379	1.68966	160.135	52.3679
9.7931	1.68966	160.135	51.6097
10.1724	1.68966	160.135	50.8457
10.5517	1.68966	160.135	50.045
10.931	1.68966	160.135	49.159
11.3103	1.68966	160.135	48.1727
11.6897	1.68966	160.135	47.1107
12.069	1.68966	160.135	46.0044
12.4483	1.68966	160.135	44.8732
12.8276	1.68966	160.135	43.7239
13.2069	1.68966	160.135	42.5532
13.5862	1.68966	160.135	41.3474
13.9655	1.68966	160.135	40.0773
14.3448	1.68966	160.135	38.6849
14.7241	1.68966	160.135	37.0473
15.1034	1.68966	160.135	34.8479
15.4828	1.68966	160.135	31.2195
15.8621	1.68966	160.135	24.1188
16.2414	1.68966	160.135	8.69986
16.6207	1.68966	160.135	-26.6414
17	1.68966	160.135	-inf
6	1.72414	173.368	57.2895
6.37931	1.72414	173.368	57.5848
6.75862	1.72414	173.368	57.3155
7.13793	1.72414	173.368	56.7667
7.51724	1.72414	173.368	56.0965
7.89655	1.72414	173.368	55.3749
8.27586	1.72414	173.368	54.6317
8.65517	1.72414	173.368	53.8796
9.03448	1.72414	173.368	53.1236
9.41379	1.72414	173.368	52.3661
9.7931	1.72414	173.368	51.608
10.1724	1.72414	173.368	50.8438
10.5517	1.72414	173.368	50.0422
10.931	1.72414	173.368	49.1545
11.3103	1.72414	173.368	48.1666
11.6897	1.72414	173.368	47.1035
12.069	1.72414	173.368	45.9966
12.4483	1.72414	173.368	44.8651
12.8276	1.72414	173.368	43.7158
13.2069	1.72414	173.368	42.545
13.5862	1.72414	173.368	41.3392
13.9655	1.72414	173.368	40.0691
14.3448	1.72414	173.368	38.6767
14.7241	1.72414	173.368	37.0391
15.1034	1.72414	173.368	34.8396
15.4828	1.72414	173.368	31.2112
15.8621	1.72414	173.368	24.1105
16.2414	1.72414	173.368	8.69163
16.6207	1.72414	173.368	-26.6496
17	1.72414	173.368	-inf
6	1.75862	187.694	57.2745
6.37931	1.75862	187.694	57.58
6.75862	1.75862	187.694	57.3127
7.13793	1.75862	187.694	56.7646
7.51724	1.75862	187.694	56.0945
7.89655	1.75862	187.694	55.373
8.27586	1.75862	187.694	54.6298
8.65517	1.75862	187.694	53.8777
9.03448	1.75862	187.694	53.1218
9.41379	1.75862	187.694	52.3643
9.7931	1.75862	187.694	51.6061
10.1724	1.75862	187.694	50.8419
10.5517	1.75862	187.694	50.0394
10.931	1.75862	187.694	49.15
11.3103	1.75862	187.694	48.1604
11.6897	1.75862	187.694	47.0963
12.069	1.75862	187.694	45.9888
12.4483	1.75862	187.694	44.8571
12.8276	1.75862	187.694	43.7077
13.2069	1.75862	187.694	42.5369
13.5862	1.75862	187.694	41.331
13.9655	1.75862	187.694	40.0609
14.3448	1.75862	187.694	38.6685
14.7241	1.75862	187.694	37.0309
15.1034	1.75862	187.694	34.8314
15.4828	1.75862	187.694	31.203
15.8621	1.75862	187.694	24.1024
16.2414	1.75862	187.694	8.68344
16.6207	1.75862	187.694	-26.6578
17	1.75862	187.694	-inf
6	1.7931	203.205	57.2599
6.37931	1.7931	203.205	57.5751
6.75862	1.7931	203.205	57.3099
7.13793	1.7931	203.205	56.7623
7.51724	1.7931	203.205	56.0924
7.89655	1.7931	203.205	55.371
8.27586	1.7931	203.205	54.6279
8.65517	1.7931	203.205	53.8758
9.03448	1.7931	203.205	53.1199
9.41379	1.7931	203.205	52.3624
9.7931	1.7931	203.205	51.6042
10.1724	1.7931	203.205	50.8398
10.5517	1.7931	203.205	50.0364
10.931	1.7931	203.205	49.1453
11.3103	1.7931	203.205	48.1542
11.6897	1.7931	203.205	47.089
12.069	1.7931	203.205	45.9811
12.4483	1.7931	203.205	44.8491
12.8276	1.7931	203.205	43.6996
13.2069	1.7931	203.205	42.5288
13.5862	1.7931	203.205	41.3229
13.9655	1.7931	203.205	40.0527
14.3448	1.7931	203.205	38.6603
14.7241	1.7931	203.205	37.0228
15.1034	1.7931	203.205	34.8233
15.4828	1.7931	203.205	31.1949
15.8621	1.7931	203.205	24.0942
16.2414	1.7931	203.205	8.67529
16.6207	1.7931	203.205	-26.666
17	1.7931	203.205	-inf
6	1.82759	219.997	57.2456
6.37931	1.82759	219.997	57.5703
6.75862	1.82759	219.997	57.3071
7.13793	1.82759	219.997	56.76
7.51724	1.82759	219.997	56.0903
7.89655	1.82759	219.997	55.3689
8.27586	1.82759	219.997	54.6259
8.65517	1.82759	219.997	53.8737
9.03448	1.82759	219.997	53.1178
9.41379	1.82759	219.997	52.3603
9.7931	1.82759	219.997	51.6022
10.1724	1.82759	219.997	50.8377
10.5517	1.82759	219.997	50.0334
10.931	1.82759	219.997	49.1406
11.3103	1.82759	219.997	48.1479
11.6897	1.82759	219.997	47.0818
12.069	1.82759	219.997	45.9734
12.4483	1.82759	219.997	44.8412
12.8276	1.82759	219.997	43.6915
13.2069	1.82759	219.997	42.5207
13.5862	1.82759	219.997	41.3148
13.9655	1.82759	219.997	40.0446
14.3448	1.82759	219.997	38.6522
14.7241	1.82759	219.997	37.0146
15.1034	1.82759	219.997	34.8152
15.4828	1.82759	219.997	31.1868
15.8621	1.82759	219.997	24.0861
16.2414	1.82759	219.997	8.66717
16.6207	1.82759	219.997	-26.6741
17	1.82759	219.997	-inf
6	1.86207	238.177	57.2318
6.37931	1.86207	238.177	57.5656
6.75862	1.86207	238.177	57.3042
7.13793	1.86207	238.177	56.7576
7.51724	1.86207	238.177	56.0881
7.89655	1.86207	238.177	55.3668
8.27586	1.86207	238.177	54.6238
8.65517	1.86207	238.177	53.8716
9.03448	1.86207	238.177	53.1157
9.41379	1.86207	238.177	52.3583
9.7931	1.86207	238.177	51.6001
10.1724	1.86207	238.177	50.8355
10.5517	1.86207	238.177	50.0303
10.931	1.86207	238.177	49.1359
11.3103	1.86207	238.177	48.1417
11.6897	1.86207	238.177	47.0746
12.069	1.86207	238.177	45.9657
12.4483	1.86207	238.177	44.8333
12.8276	1.86207	238.177	43.6835
13.2069	1.86207	238.177	42.5126
13.5862	1.86207	238.177	41.3067
13.9655	1.86207	238.177	40.0366
14.3448	1.86207	238.177	38.6441
14.7241	1.86207	238.177	37.0066
15.1034	1.86207	238.177	34.8071
15.4828	1.86207	238.177	31.1787
15.8621	1.86207	238.177	24.078
16.2414	1.86207	238.177	8.65909
16.6207	1.86207	238.177	-26.6822
17	1.86207	238.177	-inf
6	1.89655	257.859	57.2184
6.37931	1.89655	257.859	57.5609
6.75862	1.89655	257.859	57.3012
7.13793	1.89655	257.859	56.7552
7.51724	1.89655	257.859	56.0858
7.89655	1.89655	257.859	55.3646
8.27586	1.89655	257.859	54.6216
8.65517	1.89655	257.859	53.8695
9.03448	1.89655	257.859	53.1136
9.41379	1.89655	257.859	52.3561
9.7931	1.89655	257.859	51.598
10.1724	1.89655	257.859	50.8332
10.5517	1.89655	257.859	50.027
10.931	1.89655	257.859	49.1311
11.3103	1.89655	257.859	48.1354
11.6897	1.89655	257.859	47.0674
12.069	1.89655	257.859	45.958
12.4483	1.89655	257.859	44.8254
12.8276	1.89655	257.859	43.6755
13.2069	1.89655	257.859	42.5046
13.5862	1.89655	257.859	41.2987
13.9655	1.89655	257.859	40.0285
14.3448	1.89655	257.859	38.6361
14.7241	1.89655	257.859	36.9985
15.1034	1.89655	257.859	34.7991
15.4828	1.89655	257.859	31.1707
15.8621	1.89655	257.859	24.07
16.2414	1.89655	257.859	8.65105
16.6207	1.89655	257.859	-26.6902
17	1.89655	257.859	-inf
6	1.93103	279.168	57.2054
6.37931	1.93103	279.168	57.5563
6.75862	1.93103	279.168	57.2983
7.13793	1.93103	279.168	56.7527
7.51724	1.93103	279.168	56.0835
7.89655	1.93103	279.168	55.3623
8.27586	1.93103	279.168	54.6193
8.65517	1.93103	279.168	53.8672
9.03448	1.93103	279.168	53.1113
9.41379	1.93103	279.168	52.3539
9.7931	1.93103	279.168	51.5957
10.1724	1.93103	279.168	50.8308
10.5517	1.93103	279.168	50.0238
10.931	1.93103	279.168	49.1262
11.3103	1.93103	279.168	48.1291
11.6897	1.93103	279.168	47.0602
12.069	1.93103	279.168	45.9503
12.4483	1.93103	279.168	44.8175
12.8276	1.93103	279.168	43.6676
13.2069	1.93103	279.168	42.4966
13.5862	1.93103	279.168	41.2907
13.9655	1.93103	279.168	40.0205
14.3448	1.93103	279.168	38.6281
14.7241	1.93103	279.168	36.9905
15.1034	1.93103	279.168	34.7911
15.4828	1.93103	279.168	31.1627
15.8621	1.93103	279.168	24.062
16.2414	1.93103	279.168	8.64305
16.6207	1.93103	279.168	-26.6982
17	1.93103	279.168	-inf
6	1.96552	302.237	57.1928
6.37931	1.96552	302.237	57.5518
6.75862	1.96552	302.237	57.2953
7.13793	1.96552	302.237	56.7501
7.51724	1.96552	302.237	56.0811
7.89655	1.96552	302.237	55.36
8.27586	1.96552	302.237	54.617
8.65517	1.96552	302.237	53.8649
9.03448	1.96552	302.237	53.1091
9.41379	1.96552	302.237	52.3516
9.7931	1.96552	302.237	51.5935
10.1724	1.96552	302.237	50.8283
10.5517	1.96552	302.237	50.0204
10.931	1.96552	302.237	49.1213
11.3103	1.96552	302.237	48.1227
11.6897	1.96552	302.237	47.053
12.069	1.96552	302.237	45.9427
12.4483	1.96552	302.237	44.8097
12.8276	1.96552	302.237	43.6597
13.2069	1.96552	302.237	42.4887
13.5862	1.96552	302.237	41.2827
13.9655	1.96552	302.237	40.0126
14.3448	1.96552	302.237	38.6201
14.7241	1.96552	302.237	36.9825
15.1034	1.96552	302.237	34.7831
15.4828	1.96552	302.237	31.1547
15.8621	1.96552	302.237	24.054
16.2414	1.96552	302.237	8.63508
16.6207	1.96552	302.237	-26.7062
17	1.96552	302.237	-inf
6	2	327.213	-inf
6.37931	2	327.213	-inf
6.75862	2	327.213	-inf
7.13793	2	327.213	-inf
7.51724	2	327.213	-inf
7.89655	2	327.213	-inf
8.27586	2	327.213	-inf
8.65517	2	327.213	-inf
9.03448	2	327.213	-inf
9.41379	2	327.213	-inf
9.7931	2	327.213	-inf
10.1724	2	327.213	-inf
10.5517	2	327.213	-inf
10.931	2	327.213	-inf
11.3103	2	327.213	-inf
11.6897	2	327.213	-inf
12.069	2	327.213	-inf
12.4483	2	327.213	-inf
12.8276	2	327.213	-inf
13.2069	2	327.213	-inf
13.5862	2	327.213	-inf
13.9655	2	327.213	-inf
14.3448	2	327.213	-inf
14.7241	2	327.213	-inf
15.1034	2	327.213	-inf
15.4828	2	327.213	-inf
15.8621	2	327.213	-inf
16.2414	2	327.213	-inf
16.6207	2	327.213	-inf
17	2	327.213	-inf
