log(E / eV)	log(z / pc)	t / yr	 logQ
6	1.69897	0	56.9157
6.10101	1.69897	0	57.1556
6.20202	1.69897	0	57.3037
6.30303	1.69897	0	57.3792
6.40404	1.69897	0	57.3972
6.50505	1.69897	0	57.3696
6.60606	1.69897	0	57.3059
6.70707	1.69897	0	57.2135
6.80808	1.69897	0	57.0984
6.90909	1.69897	0	56.9653
7.0101	1.69897	0	56.8179
7.11111	1.69897	0	56.6591
7.21212	1.69897	0	56.4914
7.31313	1.69897	0	56.3166
7.41414	1.69897	0	56.1361
7.51515	1.69897	0	55.9512
7.61616	1.69897	0	55.7627
7.71717	1.69897	0	55.5714
7.81818	1.69897	0	55.3779
7.91919	1.69897	0	55.1826
8.0202	1.69897	0	54.9859
8.12121	1.69897	0	54.7881
8.22222	1.69897	0	54.5895
8.32323	1.69897	0	54.3901
8.42424	1.69897	0	54.1902
8.52525	1.69897	0	53.9898
8.62626	1.69897	0	53.7891
8.72727	1.69897	0	53.5882
8.82828	1.69897	0	53.387
8.92929	1.69897	0	53.1856
9.0303	1.69897	0	52.9841
9.13131	1.69897	0	52.7825
9.23232	1.69897	0	52.5808
9.33333	1.69897	0	52.379
9.43434	1.69897	0	52.1772
9.53535	1.69897	0	51.9754
9.63636	1.69897	0	51.7735
9.73737	1.69897	0	51.5716
9.83838	1.69897	0	51.3696
9.93939	1.69897	0	51.1677
10.0404	1.69897	0	50.9657
10.1414	1.69897	0	50.7637
10.2424	1.69897	0	50.5617
10.3434	1.69897	0	50.3597
10.4444	1.69897	0	50.1577
10.5455	1.69897	0	49.9557
10.6465	1.69897	0	49.7537
10.7475	1.69897	0	49.5517
10.8485	1.69897	0	49.3497
10.9495	1.69897	0	49.1477
11.0505	1.69897	0	48.9456
11.1515	1.69897	0	48.7436
11.2525	1.69897	0	48.5416
11.3535	1.69897	0	48.3395
11.4545	1.69897	0	48.1375
11.5556	1.69897	0	47.9355
11.6566	1.69897	0	47.7334
11.7576	1.69897	0	47.5313
11.8586	1.69897	0	47.3293
11.9596	1.69897	0	47.1272
12.0606	1.69897	0	46.9251
12.1616	1.69897	0	46.7229
12.2626	1.69897	0	46.5208
12.3636	1.69897	0	46.3186
12.4646	1.69897	0	46.1163
12.5657	1.69897	0	45.9139
12.6667	1.69897	0	45.7115
12.7677	1.69897	0	45.5087
12.8687	1.69897	0	45.3053
12.9697	1.69897	0	45.1001
13.0707	1.69897	0	44.8915
13.1717	1.69897	0	44.6773
13.2727	1.69897	0	44.4553
13.3737	1.69897	0	44.2236
13.4747	1.69897	0	43.9811
13.5758	1.69897	0	43.7276
13.6768	1.69897	0	43.4631
13.7778	1.69897	0	43.1881
13.8788	1.69897	0	42.9031
13.9798	1.69897	0	42.6086
14.0808	1.69897	0	42.3052
14.1818	1.69897	0	41.993
14.2828	1.69897	0	41.6719
14.3838	1.69897	0	41.3418
14.4848	1.69897	0	41.0018
14.5859	1.69897	0	40.6512
14.6869	1.69897	0	40.2885
14.7879	1.69897	0	39.912
14.8889	1.69897	0	39.5193
14.9899	1.69897	0	39.1075
15.0909	1.69897	0	38.6729
15.1919	1.69897	0	38.2108
15.2929	1.69897	0	37.7154
15.3939	1.69897	0	37.1794
15.4949	1.69897	0	36.5938
15.596	1.69897	0	35.9469
15.697	1.69897	0	35.2236
15.798	1.69897	0	34.4007
15.899	1.69897	0	33.4188
16	1.69897	0	-inf
6	1.70511	0.582132	57.2225
6.10101	1.70511	0.582132	57.3936
6.20202	1.70511	0.582132	57.4929
6.30303	1.70511	0.582132	57.5331
6.40404	1.70511	0.582132	57.5252
6.50505	1.70511	0.582132	57.4784
6.60606	1.70511	0.582132	57.4001
6.70707	1.70511	0.582132	57.2966
6.80808	1.70511	0.582132	57.173
6.90909	1.70511	0.582132	57.0333
7.0101	1.70511	0.582132	56.8808
7.11111	1.70511	0.582132	56.7181
7.21212	1.70511	0.582132	56.5473
7.31313	1.70511	0.582132	56.37
7.41414	1.70511	0.582132	56.1876
7.51515	1.70511	0.582132	56.0012
7.61616	1.70511	0.582132	55.8115
7.71717	1.70511	0.582132	55.6192
7.81818	1.70511	0.582132	55.425
7.91919	1.70511	0.582132	55.2291
8.0202	1.70511	0.582132	55.032
8.12121	1.70511	0.582132	54.8338
8.22222	1.70511	0.582132	54.6349
8.32323	1.70511	0.582132	54.4353
8.42424	1.70511	0.582132	54.2352
8.52525	1.70511	0.582132	54.0347
8.62626	1.70511	0.582132	53.8339
8.72727	1.70511	0.582132	53.6328
8.82828	1.70511	0.582132	53.4315
8.92929	1.70511	0.582132	53.2301
9.0303	1.70511	0.582132	53.0286
9.13131	1.70511	0.582132	52.8269
9.23232	1.70511	0.582132	52.6252
9.33333	1.70511	0.582132	52.4234
9.43434	1.70511	0.582132	52.2216
9.53535	1.70511	0.582132	52.0197
9.63636	1.70511	0.582132	51.8178
9.73737	1.70511	0.582132	51.6159
9.83838	1.70511	0.582132	51.414
9.93939	1.70511	0.582132	51.212
10.0404	1.70511	0.582132	51.01
10.1414	1.70511	0.582132	50.808
10.2424	1.70511	0.582132	50.606
10.3434	1.70511	0.582132	50.404
10.4444	1.70511	0.582132	50.202
10.5455	1.70511	0.582132	50
10.6465	1.70511	0.582132	49.798
10.7475	1.70511	0.582132	49.596
10.8485	1.70511	0.582132	49.394
10.9495	1.70511	0.582132	49.192
11.0505	1.70511	0.582132	48.9899
11.1515	1.70511	0.582132	48.7879
11.2525	1.70511	0.582132	48.5859
11.3535	1.70511	0.582132	48.3838
11.4545	1.70511	0.582132	48.1818
11.5556	1.70511	0.582132	47.9797
11.6566	1.70511	0.582132	47.7777
11.7576	1.70511	0.582132	47.5756
11.8586	1.70511	0.582132	47.3734
11.9596	1.70511	0.582132	47.1712
12.0606	1.70511	0.582132	46.9685
12.1616	1.70511	0.582132	46.7652
12.2626	1.70511	0.582132	46.5603
12.3636	1.70511	0.582132	46.3527
12.4646	1.70511	0.582132	46.141
12.5657	1.70511	0.582132	45.9235
12.6667	1.70511	0.582132	45.6989
12.7677	1.70511	0.582132	45.466
12.8687	1.70511	0.582132	45.2241
12.9697	1.70511	0.582132	44.9732
13.0707	1.70511	0.582132	44.7135
13.1717	1.70511	0.582132	44.4456
13.2727	1.70511	0.582132	44.17
13.3737	1.70511	0.582132	43.8875
13.4747	1.70511	0.582132	43.5988
13.5758	1.70511	0.582132	43.3043
13.6768	1.70511	0.582132	43.0045
13.7778	1.70511	0.582132	42.6997
13.8788	1.70511	0.582132	42.39
13.9798	1.70511	0.582132	42.0753
14.0808	1.70511	0.582132	41.7554
14.1818	1.70511	0.582132	41.4299
14.2828	1.70511	0.582132	41.0983
14.3838	1.70511	0.582132	40.7598
14.4848	1.70511	0.582132	40.4133
14.5859	1.70511	0.582132	40.0575
14.6869	1.70511	0.582132	39.6908
14.7879	1.70511	0.582132	39.3111
14.8889	1.70511	0.582132	38.916
14.9899	1.70511	0.582132	38.5024
15.0909	1.70511	0.582132	38.0664
15.1919	1.70511	0.582132	37.6032
15.2929	1.70511	0.582132	37.1071
15.3939	1.70511	0.582132	36.5706
15.4949	1.70511	0.582132	35.9845
15.596	1.70511	0.582132	35.3373
15.697	1.70511	0.582132	34.6137
15.798	1.70511	0.582132	33.7906
15.899	1.70511	0.582132	32.8086
16	1.70511	0.582132	-inf
6	1.71126	0.930549	57.4045
6.10101	1.71126	0.930549	57.5329
6.20202	1.71126	0.930549	57.6033
6.30303	1.71126	0.930549	57.6235
6.40404	1.71126	0.930549	57.6013
6.50505	1.71126	0.930549	57.544
6.60606	1.71126	0.930549	57.4581
6.70707	1.71126	0.930549	57.3488
6.80808	1.71126	0.930549	57.2209
6.90909	1.71126	0.930549	57.0778
7.0101	1.71126	0.930549	56.9228
7.11111	1.71126	0.930549	56.7581
7.21212	1.71126	0.930549	56.5857
7.31313	1.71126	0.930549	56.4072
7.41414	1.71126	0.930549	56.2239
7.51515	1.71126	0.930549	56.0367
7.61616	1.71126	0.930549	55.8464
7.71717	1.71126	0.930549	55.6537
7.81818	1.71126	0.930549	55.4591
7.91919	1.71126	0.930549	55.2629
8.0202	1.71126	0.930549	55.0656
8.12121	1.71126	0.930549	54.8672
8.22222	1.71126	0.930549	54.6681
8.32323	1.71126	0.930549	54.4684
8.42424	1.71126	0.930549	54.2682
8.52525	1.71126	0.930549	54.0677
8.62626	1.71126	0.930549	53.8668
8.72727	1.71126	0.930549	53.6657
8.82828	1.71126	0.930549	53.4644
8.92929	1.71126	0.930549	53.263
9.0303	1.71126	0.930549	53.0614
9.13131	1.71126	0.930549	52.8597
9.23232	1.71126	0.930549	52.658
9.33333	1.71126	0.930549	52.4562
9.43434	1.71126	0.930549	52.2544
9.53535	1.71126	0.930549	52.0525
9.63636	1.71126	0.930549	51.8506
9.73737	1.71126	0.930549	51.6487
9.83838	1.71126	0.930549	51.4467
9.93939	1.71126	0.930549	51.2447
10.0404	1.71126	0.930549	51.0428
10.1414	1.71126	0.930549	50.8408
10.2424	1.71126	0.930549	50.6388
10.3434	1.71126	0.930549	50.4368
10.4444	1.71126	0.930549	50.2348
10.5455	1.71126	0.930549	50.0328
10.6465	1.71126	0.930549	49.8308
10.7475	1.71126	0.930549	49.6287
10.8485	1.71126	0.930549	49.4267
10.9495	1.71126	0.930549	49.2247
11.0505	1.71126	0.930549	49.0227
11.1515	1.71126	0.930549	48.8206
11.2525	1.71126	0.930549	48.6186
11.3535	1.71126	0.930549	48.4166
11.4545	1.71126	0.930549	48.2145
11.5556	1.71126	0.930549	48.0124
11.6566	1.71126	0.930549	47.8103
11.7576	1.71126	0.930549	47.608
11.8586	1.71126	0.930549	47.4054
11.9596	1.71126	0.930549	47.2021
12.0606	1.71126	0.930549	46.9977
12.1616	1.71126	0.930549	46.7912
12.2626	1.71126	0.930549	46.5814
12.3636	1.71126	0.930549	46.3672
12.4646	1.71126	0.930549	46.1469
12.5657	1.71126	0.930549	45.9196
12.6667	1.71126	0.930549	45.6842
12.7677	1.71126	0.930549	45.4402
12.8687	1.71126	0.930549	45.1878
12.9697	1.71126	0.930549	44.927
13.0707	1.71126	0.930549	44.6585
13.1717	1.71126	0.930549	44.3828
13.2727	1.71126	0.930549	44.1006
13.3737	1.71126	0.930549	43.8125
13.4747	1.71126	0.930549	43.5191
13.5758	1.71126	0.930549	43.2208
13.6768	1.71126	0.930549	42.918
13.7778	1.71126	0.930549	42.6107
13.8788	1.71126	0.930549	42.2989
13.9798	1.71126	0.930549	41.9826
14.0808	1.71126	0.930549	41.6615
14.1818	1.71126	0.930549	41.335
14.2828	1.71126	0.930549	41.0026
14.3838	1.71126	0.930549	40.6635
14.4848	1.71126	0.930549	40.3165
14.5859	1.71126	0.930549	39.9603
14.6869	1.71126	0.930549	39.5933
14.7879	1.71126	0.930549	39.2134
14.8889	1.71126	0.930549	38.8182
14.9899	1.71126	0.930549	38.4044
15.0909	1.71126	0.930549	37.9683
15.1919	1.71126	0.930549	37.5051
15.2929	1.71126	0.930549	37.0088
15.3939	1.71126	0.930549	36.4723
15.4949	1.71126	0.930549	35.8862
15.596	1.71126	0.930549	35.239
15.697	1.71126	0.930549	34.5154
15.798	1.71126	0.930549	33.6923
15.899	1.71126	0.930549	32.7103
16	1.71126	0.930549	-inf
6	1.7174	1.20324	57.5593
6.10101	1.7174	1.20324	57.6518
6.20202	1.7174	1.20324	57.6974
6.30303	1.7174	1.20324	57.7002
6.40404	1.7174	1.20324	57.6657
6.50505	1.7174	1.20324	57.5994
6.60606	1.7174	1.20324	57.5069
6.70707	1.7174	1.20324	57.3927
6.80808	1.7174	1.20324	57.261
6.90909	1.7174	1.20324	57.1152
7.0101	1.7174	1.20324	56.9579
7.11111	1.7174	1.20324	56.7915
7.21212	1.7174	1.20324	56.6178
7.31313	1.7174	1.20324	56.4383
7.41414	1.7174	1.20324	56.2542
7.51515	1.7174	1.20324	56.0664
7.61616	1.7174	1.20324	55.8756
7.71717	1.7174	1.20324	55.6825
7.81818	1.7174	1.20324	55.4876
7.91919	1.7174	1.20324	55.2912
8.0202	1.7174	1.20324	55.0937
8.12121	1.7174	1.20324	54.8952
8.22222	1.7174	1.20324	54.6959
8.32323	1.7174	1.20324	54.4961
8.42424	1.7174	1.20324	54.2959
8.52525	1.7174	1.20324	54.0953
8.62626	1.7174	1.20324	53.8943
8.72727	1.7174	1.20324	53.6932
8.82828	1.7174	1.20324	53.4919
8.92929	1.7174	1.20324	53.2904
9.0303	1.7174	1.20324	53.0888
9.13131	1.7174	1.20324	52.8871
9.23232	1.7174	1.20324	52.6854
9.33333	1.7174	1.20324	52.4836
9.43434	1.7174	1.20324	52.2818
9.53535	1.7174	1.20324	52.0799
9.63636	1.7174	1.20324	51.878
9.73737	1.7174	1.20324	51.676
9.83838	1.7174	1.20324	51.4741
9.93939	1.7174	1.20324	51.2721
10.0404	1.7174	1.20324	51.0701
10.1414	1.7174	1.20324	50.8681
10.2424	1.7174	1.20324	50.6661
10.3434	1.7174	1.20324	50.4641
10.4444	1.7174	1.20324	50.2621
10.5455	1.7174	1.20324	50.0601
10.6465	1.7174	1.20324	49.8581
10.7475	1.7174	1.20324	49.6561
10.8485	1.7174	1.20324	49.4541
10.9495	1.7174	1.20324	49.252
11.0505	1.7174	1.20324	49.05
11.1515	1.7174	1.20324	48.848
11.2525	1.7174	1.20324	48.6459
11.3535	1.7174	1.20324	48.4439
11.4545	1.7174	1.20324	48.2417
11.5556	1.7174	1.20324	48.0395
11.6566	1.7174	1.20324	47.837
11.7576	1.7174	1.20324	47.6342
11.8586	1.7174	1.20324	47.4306
11.9596	1.7174	1.20324	47.2256
12.0606	1.7174	1.20324	47.0186
12.1616	1.7174	1.20324	46.8084
12.2626	1.7174	1.20324	46.5939
12.3636	1.7174	1.20324	46.3738
12.4646	1.7174	1.20324	46.147
12.5657	1.7174	1.20324	45.9126
12.6667	1.7174	1.20324	45.6701
12.7677	1.7174	1.20324	45.4194
12.8687	1.7174	1.20324	45.1606
12.9697	1.7174	1.20324	44.8941
13.0707	1.7174	1.20324	44.6206
13.1717	1.7174	1.20324	44.3407
13.2727	1.7174	1.20324	44.0549
13.3737	1.7174	1.20324	43.7638
13.4747	1.7174	1.20324	43.468
13.5758	1.7174	1.20324	43.1677
13.6768	1.7174	1.20324	42.8632
13.7778	1.7174	1.20324	42.5546
13.8788	1.7174	1.20324	42.2418
13.9798	1.7174	1.20324	41.9247
14.0808	1.7174	1.20324	41.6029
14.1818	1.7174	1.20324	41.2759
14.2828	1.7174	1.20324	40.9431
14.3838	1.7174	1.20324	40.6036
14.4848	1.7174	1.20324	40.2564
14.5859	1.7174	1.20324	39.9
14.6869	1.7174	1.20324	39.5329
14.7879	1.7174	1.20324	39.1529
14.8889	1.7174	1.20324	38.7575
14.9899	1.7174	1.20324	38.3437
15.0909	1.7174	1.20324	37.9075
15.1919	1.7174	1.20324	37.4443
15.2929	1.7174	1.20324	36.948
15.3939	1.7174	1.20324	36.4115
15.4949	1.7174	1.20324	35.8254
15.596	1.7174	1.20324	35.1781
15.697	1.7174	1.20324	34.4545
15.798	1.7174	1.20324	33.6314
15.899	1.7174	1.20324	32.6494
16	1.7174	1.20324	-inf
6	1.72354	1.42475	57.6881
6.10101	1.72354	1.42475	57.75
6.20202	1.72354	1.42475	57.774
6.30303	1.72354	1.42475	57.7614
6.40404	1.72354	1.42475	57.7158
6.50505	1.72354	1.42475	57.6415
6.60606	1.72354	1.42475	57.543
6.70707	1.72354	1.42475	57.4244
6.80808	1.72354	1.42475	57.2894
6.90909	1.72354	1.42475	57.141
7.0101	1.72354	1.42475	56.9817
7.11111	1.72354	1.42475	56.8138
7.21212	1.72354	1.42475	56.639
7.31313	1.72354	1.42475	56.4585
7.41414	1.72354	1.42475	56.2737
7.51515	1.72354	1.42475	56.0853
7.61616	1.72354	1.42475	55.8941
7.71717	1.72354	1.42475	55.7007
7.81818	1.72354	1.42475	55.5055
7.91919	1.72354	1.42475	55.3089
8.0202	1.72354	1.42475	55.1111
8.12121	1.72354	1.42475	54.9125
8.22222	1.72354	1.42475	54.7132
8.32323	1.72354	1.42475	54.5133
8.42424	1.72354	1.42475	54.313
8.52525	1.72354	1.42475	54.1123
8.62626	1.72354	1.42475	53.9113
8.72727	1.72354	1.42475	53.7101
8.82828	1.72354	1.42475	53.5088
8.92929	1.72354	1.42475	53.3073
9.0303	1.72354	1.42475	53.1057
9.13131	1.72354	1.42475	52.904
9.23232	1.72354	1.42475	52.7023
9.33333	1.72354	1.42475	52.5004
9.43434	1.72354	1.42475	52.2986
9.53535	1.72354	1.42475	52.0967
9.63636	1.72354	1.42475	51.8948
9.73737	1.72354	1.42475	51.6928
9.83838	1.72354	1.42475	51.4909
9.93939	1.72354	1.42475	51.2889
10.0404	1.72354	1.42475	51.0869
10.1414	1.72354	1.42475	50.885
10.2424	1.72354	1.42475	50.683
10.3434	1.72354	1.42475	50.481
10.4444	1.72354	1.42475	50.2789
10.5455	1.72354	1.42475	50.0769
10.6465	1.72354	1.42475	49.8749
10.7475	1.72354	1.42475	49.6729
10.8485	1.72354	1.42475	49.4709
10.9495	1.72354	1.42475	49.2688
11.0505	1.72354	1.42475	49.0668
11.1515	1.72354	1.42475	48.8647
11.2525	1.72354	1.42475	48.6626
11.3535	1.72354	1.42475	48.4605
11.4545	1.72354	1.42475	48.2582
11.5556	1.72354	1.42475	48.0556
11.6566	1.72354	1.42475	47.8526
11.7576	1.72354	1.42475	47.6488
11.8586	1.72354	1.42475	47.4438
11.9596	1.72354	1.42475	47.2368
12.0606	1.72354	1.42475	47.0269
12.1616	1.72354	1.42475	46.8131
12.2626	1.72354	1.42475	46.5943
12.3636	1.72354	1.42475	46.3693
12.4646	1.72354	1.42475	46.1373
12.5657	1.72354	1.42475	45.8976
12.6667	1.72354	1.42475	45.6501
12.7677	1.72354	1.42475	45.3946
12.8687	1.72354	1.42475	45.1315
12.9697	1.72354	1.42475	44.8612
13.0707	1.72354	1.42475	44.5844
13.1717	1.72354	1.42475	44.3017
13.2727	1.72354	1.42475	44.0136
13.3737	1.72354	1.42475	43.7206
13.4747	1.72354	1.42475	43.4232
13.5758	1.72354	1.42475	43.1216
13.6768	1.72354	1.42475	42.8161
13.7778	1.72354	1.42475	42.5066
13.8788	1.72354	1.42475	42.1932
13.9798	1.72354	1.42475	41.8755
14.0808	1.72354	1.42475	41.5533
14.1818	1.72354	1.42475	41.226
14.2828	1.72354	1.42475	40.893
14.3838	1.72354	1.42475	40.5533
14.4848	1.72354	1.42475	40.2059
14.5859	1.72354	1.42475	39.8494
14.6869	1.72354	1.42475	39.4821
14.7879	1.72354	1.42475	39.1021
14.8889	1.72354	1.42475	38.7067
14.9899	1.72354	1.42475	38.2928
15.0909	1.72354	1.42475	37.8566
15.1919	1.72354	1.42475	37.3933
15.2929	1.72354	1.42475	36.8971
15.3939	1.72354	1.42475	36.3605
15.4949	1.72354	1.42475	35.7744
15.596	1.72354	1.42475	35.1271
15.697	1.72354	1.42475	34.4035
15.798	1.72354	1.42475	33.5804
15.899	1.72354	1.42475	32.5984
16	1.72354	1.42475	-inf
6	1.72969	1.62044	57.7942
6.10101	1.72969	1.62044	57.8318
6.20202	1.72969	1.62044	57.8379
6.30303	1.72969	1.62044	57.8124
6.40404	1.72969	1.62044	57.7574
6.50505	1.72969	1.62044	57.6762
6.60606	1.72969	1.62044	57.5726
6.70707	1.72969	1.62044	57.4502
6.80808	1.72969	1.62044	57.3123
6.90909	1.72969	1.62044	57.1616
7.0101	1.72969	1.62044	57.0007
7.11111	1.72969	1.62044	56.8315
7.21212	1.72969	1.62044	56.6556
7.31313	1.72969	1.62044	56.4744
7.41414	1.72969	1.62044	56.289
7.51515	1.72969	1.62044	56.1001
7.61616	1.72969	1.62044	55.9085
7.71717	1.72969	1.62044	55.7148
7.81818	1.72969	1.62044	55.5193
7.91919	1.72969	1.62044	55.3225
8.0202	1.72969	1.62044	55.1246
8.12121	1.72969	1.62044	54.9259
8.22222	1.72969	1.62044	54.7265
8.32323	1.72969	1.62044	54.5265
8.42424	1.72969	1.62044	54.3261
8.52525	1.72969	1.62044	54.1254
8.62626	1.72969	1.62044	53.9244
8.72727	1.72969	1.62044	53.7232
8.82828	1.72969	1.62044	53.5218
8.92929	1.72969	1.62044	53.3203
9.0303	1.72969	1.62044	53.1187
9.13131	1.72969	1.62044	52.917
9.23232	1.72969	1.62044	52.7152
9.33333	1.72969	1.62044	52.5134
9.43434	1.72969	1.62044	52.3116
9.53535	1.72969	1.62044	52.1097
9.63636	1.72969	1.62044	51.9078
9.73737	1.72969	1.62044	51.7058
9.83838	1.72969	1.62044	51.5039
9.93939	1.72969	1.62044	51.3019
10.0404	1.72969	1.62044	51.0999
10.1414	1.72969	1.62044	50.8979
10.2424	1.72969	1.62044	50.6959
10.3434	1.72969	1.62044	50.4939
10.4444	1.72969	1.62044	50.2919
10.5455	1.72969	1.62044	50.0899
10.6465	1.72969	1.62044	49.8879
10.7475	1.72969	1.62044	49.6858
10.8485	1.72969	1.62044	49.4838
10.9495	1.72969	1.62044	49.2818
11.0505	1.72969	1.62044	49.0797
11.1515	1.72969	1.62044	48.8776
11.2525	1.72969	1.62044	48.6754
11.3535	1.72969	1.62044	48.473
11.4545	1.72969	1.62044	48.2704
11.5556	1.72969	1.62044	48.0673
11.6566	1.72969	1.62044	47.8636
11.7576	1.72969	1.62044	47.6587
11.8586	1.72969	1.62044	47.4521
11.9596	1.72969	1.62044	47.243
12.0606	1.72969	1.62044	47.0305
12.1616	1.72969	1.62044	46.8135
12.2626	1.72969	1.62044	46.5911
12.3636	1.72969	1.62044	46.3623
12.4646	1.72969	1.62044	46.1263
12.5657	1.72969	1.62044	45.8827
12.6667	1.72969	1.62044	45.6315
12.7677	1.72969	1.62044	45.3726
12.8687	1.72969	1.62044	45.1064
12.9697	1.72969	1.62044	44.8335
13.0707	1.72969	1.62044	44.5545
13.1717	1.72969	1.62044	44.2698
13.2727	1.72969	1.62044	43.9801
13.3737	1.72969	1.62044	43.6858
13.4747	1.72969	1.62044	43.3873
13.5758	1.72969	1.62044	43.0849
13.6768	1.72969	1.62044	42.7786
13.7778	1.72969	1.62044	42.4686
13.8788	1.72969	1.62044	42.1548
13.9798	1.72969	1.62044	41.8367
14.0808	1.72969	1.62044	41.5142
14.1818	1.72969	1.62044	41.1867
14.2828	1.72969	1.62044	40.8535
14.3838	1.72969	1.62044	40.5137
14.4848	1.72969	1.62044	40.1662
14.5859	1.72969	1.62044	39.8096
14.6869	1.72969	1.62044	39.4423
14.7879	1.72969	1.62044	39.0622
14.8889	1.72969	1.62044	38.6668
14.9899	1.72969	1.62044	38.2528
15.0909	1.72969	1.62044	37.8166
15.1919	1.72969	1.62044	37.3533
15.2929	1.72969	1.62044	36.8571
15.3939	1.72969	1.62044	36.3204
15.4949	1.72969	1.62044	35.7343
15.596	1.72969	1.62044	35.0871
15.697	1.72969	1.62044	34.3635
15.798	1.72969	1.62044	33.5404
15.899	1.72969	1.62044	32.5584
16	1.72969	1.62044	-inf
6	1.73583	1.78829	57.8804
6.10101	1.73583	1.78829	57.8976
6.20202	1.73583	1.78829	57.8885
6.30303	1.73583	1.78829	57.8516
6.40404	1.73583	1.78829	57.7883
6.50505	1.73583	1.78829	57.701
6.60606	1.73583	1.78829	57.5928
6.70707	1.73583	1.78829	57.4669
6.80808	1.73583	1.78829	57.3264
6.90909	1.73583	1.78829	57.1738
7.0101	1.73583	1.78829	57.0113
7.11111	1.73583	1.78829	56.8409
7.21212	1.73583	1.78829	56.6641
7.31313	1.73583	1.78829	56.4822
7.41414	1.73583	1.78829	56.2962
7.51515	1.73583	1.78829	56.1068
7.61616	1.73583	1.78829	55.9149
7.71717	1.73583	1.78829	55.7209
7.81818	1.73583	1.78829	55.5253
7.91919	1.73583	1.78829	55.3283
8.0202	1.73583	1.78829	55.1303
8.12121	1.73583	1.78829	54.9314
8.22222	1.73583	1.78829	54.7319
8.32323	1.73583	1.78829	54.5319
8.42424	1.73583	1.78829	54.3315
8.52525	1.73583	1.78829	54.1307
8.62626	1.73583	1.78829	53.9297
8.72727	1.73583	1.78829	53.7284
8.82828	1.73583	1.78829	53.527
8.92929	1.73583	1.78829	53.3255
9.0303	1.73583	1.78829	53.1239
9.13131	1.73583	1.78829	52.9222
9.23232	1.73583	1.78829	52.7204
9.33333	1.73583	1.78829	52.5186
9.43434	1.73583	1.78829	52.3167
9.53535	1.73583	1.78829	52.1148
9.63636	1.73583	1.78829	51.9129
9.73737	1.73583	1.78829	51.7109
9.83838	1.73583	1.78829	51.509
9.93939	1.73583	1.78829	51.307
10.0404	1.73583	1.78829	51.105
10.1414	1.73583	1.78829	50.903
10.2424	1.73583	1.78829	50.701
10.3434	1.73583	1.78829	50.499
10.4444	1.73583	1.78829	50.297
10.5455	1.73583	1.78829	50.095
10.6465	1.73583	1.78829	49.893
10.7475	1.73583	1.78829	49.6909
10.8485	1.73583	1.78829	49.4889
10.9495	1.73583	1.78829	49.2868
11.0505	1.73583	1.78829	49.0847
11.1515	1.73583	1.78829	48.8824
11.2525	1.73583	1.78829	48.68
11.3535	1.73583	1.78829	48.4774
11.4545	1.73583	1.78829	48.2744
11.5556	1.73583	1.78829	48.0708
11.6566	1.73583	1.78829	47.8661
11.7576	1.73583	1.78829	47.66
11.8586	1.73583	1.78829	47.4518
11.9596	1.73583	1.78829	47.2407
12.0606	1.73583	1.78829	47.0257
12.1616	1.73583	1.78829	46.806
12.2626	1.73583	1.78829	46.5805
12.3636	1.73583	1.78829	46.3485
12.4646	1.73583	1.78829	46.1093
12.5657	1.73583	1.78829	45.8627
12.6667	1.73583	1.78829	45.6085
12.7677	1.73583	1.78829	45.3471
12.8687	1.73583	1.78829	45.0786
12.9697	1.73583	1.78829	44.8037
13.0707	1.73583	1.78829	44.523
13.1717	1.73583	1.78829	44.2369
13.2727	1.73583	1.78829	43.946
13.3737	1.73583	1.78829	43.6507
13.4747	1.73583	1.78829	43.3514
13.5758	1.73583	1.78829	43.0484
13.6768	1.73583	1.78829	42.7416
13.7778	1.73583	1.78829	42.4312
13.8788	1.73583	1.78829	42.117
13.9798	1.73583	1.78829	41.7987
14.0808	1.73583	1.78829	41.476
14.1818	1.73583	1.78829	41.1484
14.2828	1.73583	1.78829	40.815
14.3838	1.73583	1.78829	40.4751
14.4848	1.73583	1.78829	40.1275
14.5859	1.73583	1.78829	39.7709
14.6869	1.73583	1.78829	39.4035
14.7879	1.73583	1.78829	39.0234
14.8889	1.73583	1.78829	38.6279
14.9899	1.73583	1.78829	38.214
15.0909	1.73583	1.78829	37.7778
15.1919	1.73583	1.78829	37.3145
15.2929	1.73583	1.78829	36.8182
15.3939	1.73583	1.78829	36.2816
15.4949	1.73583	1.78829	35.6954
15.596	1.73583	1.78829	35.0482
15.697	1.73583	1.78829	34.3246
15.798	1.73583	1.78829	33.5015
15.899	1.73583	1.78829	32.5195
16	1.73583	1.78829	-inf
6	1.74197	1.93669	57.9498
6.10101	1.74197	1.93669	57.9503
6.20202	1.74197	1.93669	57.9281
6.30303	1.74197	1.93669	57.8816
6.40404	1.74197	1.93669	57.811
6.50505	1.74197	1.93669	57.7182
6.60606	1.74197	1.93669	57.606
6.70707	1.74197	1.93669	57.4771
6.80808	1.74197	1.93669	57.3343
6.90909	1.74197	1.93669	57.1799
7.0101	1.74197	1.93669	57.0161
7.11111	1.74197	1.93669	56.8446
7.21212	1.74197	1.93669	56.667
7.31313	1.74197	1.93669	56.4844
7.41414	1.74197	1.93669	56.2979
7.51515	1.74197	1.93669	56.1082
7.61616	1.74197	1.93669	55.916
7.71717	1.74197	1.93669	55.7217
7.81818	1.74197	1.93669	55.5259
7.91919	1.74197	1.93669	55.3287
8.0202	1.74197	1.93669	55.1306
8.12121	1.74197	1.93669	54.9317
8.22222	1.74197	1.93669	54.7321
8.32323	1.74197	1.93669	54.532
8.42424	1.74197	1.93669	54.3315
8.52525	1.74197	1.93669	54.1307
8.62626	1.74197	1.93669	53.9297
8.72727	1.74197	1.93669	53.7284
8.82828	1.74197	1.93669	53.527
8.92929	1.74197	1.93669	53.3254
9.0303	1.74197	1.93669	53.1238
9.13131	1.74197	1.93669	52.9221
9.23232	1.74197	1.93669	52.7203
9.33333	1.74197	1.93669	52.5185
9.43434	1.74197	1.93669	52.3166
9.53535	1.74197	1.93669	52.1147
9.63636	1.74197	1.93669	51.9128
9.73737	1.74197	1.93669	51.7108
9.83838	1.74197	1.93669	51.5089
9.93939	1.74197	1.93669	51.3069
10.0404	1.74197	1.93669	51.1049
10.1414	1.74197	1.93669	50.9029
10.2424	1.74197	1.93669	50.7009
10.3434	1.74197	1.93669	50.4989
10.4444	1.74197	1.93669	50.2969
10.5455	1.74197	1.93669	50.0949
10.6465	1.74197	1.93669	49.8928
10.7475	1.74197	1.93669	49.6908
10.8485	1.74197	1.93669	49.4887
10.9495	1.74197	1.93669	49.2865
11.0505	1.74197	1.93669	49.0843
11.1515	1.74197	1.93669	48.8819
11.2525	1.74197	1.93669	48.6793
11.3535	1.74197	1.93669	48.4763
11.4545	1.74197	1.93669	48.2728
11.5556	1.74197	1.93669	48.0685
11.6566	1.74197	1.93669	47.8629
11.7576	1.74197	1.93669	47.6556
11.8586	1.74197	1.93669	47.4458
11.9596	1.74197	1.93669	47.2328
12.0606	1.74197	1.93669	47.0157
12.1616	1.74197	1.93669	46.7936
12.2626	1.74197	1.93669	46.5655
12.3636	1.74197	1.93669	46.3309
12.4646	1.74197	1.93669	46.0892
12.5657	1.74197	1.93669	45.8401
12.6667	1.74197	1.93669	45.5837
12.7677	1.74197	1.93669	45.3202
12.8687	1.74197	1.93669	45.05
12.9697	1.74197	1.93669	44.7736
13.0707	1.74197	1.93669	44.4916
13.1717	1.74197	1.93669	44.2044
13.2727	1.74197	1.93669	43.9126
13.3737	1.74197	1.93669	43.6166
13.4747	1.74197	1.93669	43.3167
13.5758	1.74197	1.93669	43.0132
13.6768	1.74197	1.93669	42.7061
13.7778	1.74197	1.93669	42.3953
13.8788	1.74197	1.93669	42.0809
13.9798	1.74197	1.93669	41.7624
14.0808	1.74197	1.93669	41.4396
14.1818	1.74197	1.93669	41.1118
14.2828	1.74197	1.93669	40.7783
14.3838	1.74197	1.93669	40.4383
14.4848	1.74197	1.93669	40.0907
14.5859	1.74197	1.93669	39.734
14.6869	1.74197	1.93669	39.3666
14.7879	1.74197	1.93669	38.9865
14.8889	1.74197	1.93669	38.591
14.9899	1.74197	1.93669	38.1771
15.0909	1.74197	1.93669	37.7408
15.1919	1.74197	1.93669	37.2775
15.2929	1.74197	1.93669	36.7812
15.3939	1.74197	1.93669	36.2446
15.4949	1.74197	1.93669	35.6585
15.596	1.74197	1.93669	35.0112
15.697	1.74197	1.93669	34.2876
15.798	1.74197	1.93669	33.4645
15.899	1.74197	1.93669	32.4825
16	1.74197	1.93669	-inf
6	1.74812	2.08095	58.0073
6.10101	1.74812	2.08095	57.9945
6.20202	1.74812	2.08095	57.962
6.30303	1.74812	2.08095	57.9075
6.40404	1.74812	2.08095	57.8309
6.50505	1.74812	2.08095	57.7336
6.60606	1.74812	2.08095	57.618
6.70707	1.74812	2.08095	57.4866
6.80808	1.74812	2.08095	57.3418
6.90909	1.74812	2.08095	57.1859
7.0101	1.74812	2.08095	57.0209
7.11111	1.74812	2.08095	56.8486
7.21212	1.74812	2.08095	56.6703
7.31313	1.74812	2.08095	56.4872
7.41414	1.74812	2.08095	56.3002
7.51515	1.74812	2.08095	56.1102
7.61616	1.74812	2.08095	55.9177
7.71717	1.74812	2.08095	55.7232
7.81818	1.74812	2.08095	55.5272
7.91919	1.74812	2.08095	55.33
8.0202	1.74812	2.08095	55.1317
8.12121	1.74812	2.08095	54.9327
8.22222	1.74812	2.08095	54.7331
8.32323	1.74812	2.08095	54.5329
8.42424	1.74812	2.08095	54.3324
8.52525	1.74812	2.08095	54.1316
8.62626	1.74812	2.08095	53.9305
8.72727	1.74812	2.08095	53.7292
8.82828	1.74812	2.08095	53.5278
8.92929	1.74812	2.08095	53.3262
9.0303	1.74812	2.08095	53.1246
9.13131	1.74812	2.08095	52.9228
9.23232	1.74812	2.08095	52.7211
9.33333	1.74812	2.08095	52.5192
9.43434	1.74812	2.08095	52.3174
9.53535	1.74812	2.08095	52.1154
9.63636	1.74812	2.08095	51.9135
9.73737	1.74812	2.08095	51.7116
9.83838	1.74812	2.08095	51.5096
9.93939	1.74812	2.08095	51.3076
10.0404	1.74812	2.08095	51.1056
10.1414	1.74812	2.08095	50.9036
10.2424	1.74812	2.08095	50.7016
10.3434	1.74812	2.08095	50.4996
10.4444	1.74812	2.08095	50.2976
10.5455	1.74812	2.08095	50.0955
10.6465	1.74812	2.08095	49.8935
10.7475	1.74812	2.08095	49.6914
10.8485	1.74812	2.08095	49.4892
10.9495	1.74812	2.08095	49.287
11.0505	1.74812	2.08095	49.0846
11.1515	1.74812	2.08095	48.8821
11.2525	1.74812	2.08095	48.6792
11.3535	1.74812	2.08095	48.4759
11.4545	1.74812	2.08095	48.2719
11.5556	1.74812	2.08095	48.0669
11.6566	1.74812	2.08095	47.8604
11.7576	1.74812	2.08095	47.6519
11.8586	1.74812	2.08095	47.4408
11.9596	1.74812	2.08095	47.2262
12.0606	1.74812	2.08095	47.0072
12.1616	1.74812	2.08095	46.7831
12.2626	1.74812	2.08095	46.553
12.3636	1.74812	2.08095	46.3163
12.4646	1.74812	2.08095	46.0726
12.5657	1.74812	2.08095	45.8216
12.6667	1.74812	2.08095	45.5634
12.7677	1.74812	2.08095	45.2984
12.8687	1.74812	2.08095	45.0268
12.9697	1.74812	2.08095	44.7492
13.0707	1.74812	2.08095	44.4662
13.1717	1.74812	2.08095	44.1782
13.2727	1.74812	2.08095	43.8857
13.3737	1.74812	2.08095	43.5891
13.4747	1.74812	2.08095	43.2888
13.5758	1.74812	2.08095	42.9849
13.6768	1.74812	2.08095	42.6775
13.7778	1.74812	2.08095	42.3665
13.8788	1.74812	2.08095	42.0519
13.9798	1.74812	2.08095	41.7333
14.0808	1.74812	2.08095	41.4103
14.1818	1.74812	2.08095	41.0824
14.2828	1.74812	2.08095	40.7489
14.3838	1.74812	2.08095	40.4088
14.4848	1.74812	2.08095	40.0612
14.5859	1.74812	2.08095	39.7045
14.6869	1.74812	2.08095	39.3371
14.7879	1.74812	2.08095	38.9569
14.8889	1.74812	2.08095	38.5614
14.9899	1.74812	2.08095	38.1474
15.0909	1.74812	2.08095	37.7112
15.1919	1.74812	2.08095	37.2478
15.2929	1.74812	2.08095	36.7515
15.3939	1.74812	2.08095	36.2149
15.4949	1.74812	2.08095	35.6288
15.596	1.74812	2.08095	34.9816
15.697	1.74812	2.08095	34.2579
15.798	1.74812	2.08095	33.4348
15.899	1.74812	2.08095	32.4528
16	1.74812	2.08095	-inf
6	1.75426	2.20698	58.0523
6.10101	1.75426	2.20698	58.0281
6.20202	1.75426	2.20698	57.9865
6.30303	1.75426	2.20698	57.9249
6.40404	1.75426	2.20698	57.8429
6.50505	1.75426	2.20698	57.7416
6.60606	1.75426	2.20698	57.623
6.70707	1.75426	2.20698	57.4892
6.80808	1.75426	2.20698	57.3426
6.90909	1.75426	2.20698	57.1853
7.0101	1.75426	2.20698	57.0193
7.11111	1.75426	2.20698	56.8461
7.21212	1.75426	2.20698	56.6672
7.31313	1.75426	2.20698	56.4836
7.41414	1.75426	2.20698	56.2962
7.51515	1.75426	2.20698	56.1059
7.61616	1.75426	2.20698	55.9132
7.71717	1.75426	2.20698	55.7185
7.81818	1.75426	2.20698	55.5224
7.91919	1.75426	2.20698	55.325
8.0202	1.75426	2.20698	55.1267
8.12121	1.75426	2.20698	54.9276
8.22222	1.75426	2.20698	54.7279
8.32323	1.75426	2.20698	54.5277
8.42424	1.75426	2.20698	54.3271
8.52525	1.75426	2.20698	54.1263
8.62626	1.75426	2.20698	53.9252
8.72727	1.75426	2.20698	53.7239
8.82828	1.75426	2.20698	53.5224
8.92929	1.75426	2.20698	53.3209
9.0303	1.75426	2.20698	53.1192
9.13131	1.75426	2.20698	52.9175
9.23232	1.75426	2.20698	52.7157
9.33333	1.75426	2.20698	52.5138
9.43434	1.75426	2.20698	52.3119
9.53535	1.75426	2.20698	52.11
9.63636	1.75426	2.20698	51.9081
9.73737	1.75426	2.20698	51.7062
9.83838	1.75426	2.20698	51.5042
9.93939	1.75426	2.20698	51.3022
10.0404	1.75426	2.20698	51.1002
10.1414	1.75426	2.20698	50.8982
10.2424	1.75426	2.20698	50.6962
10.3434	1.75426	2.20698	50.4942
10.4444	1.75426	2.20698	50.2921
10.5455	1.75426	2.20698	50.0901
10.6465	1.75426	2.20698	49.888
10.7475	1.75426	2.20698	49.6858
10.8485	1.75426	2.20698	49.4836
10.9495	1.75426	2.20698	49.2813
11.0505	1.75426	2.20698	49.0788
11.1515	1.75426	2.20698	48.876
11.2525	1.75426	2.20698	48.6728
11.3535	1.75426	2.20698	48.4691
11.4545	1.75426	2.20698	48.2646
11.5556	1.75426	2.20698	48.0588
11.6566	1.75426	2.20698	47.8515
11.7576	1.75426	2.20698	47.6419
11.8586	1.75426	2.20698	47.4295
11.9596	1.75426	2.20698	47.2134
12.0606	1.75426	2.20698	46.9929
12.1616	1.75426	2.20698	46.767
12.2626	1.75426	2.20698	46.5351
12.3636	1.75426	2.20698	46.2966
12.4646	1.75426	2.20698	46.0512
12.5657	1.75426	2.20698	45.7986
12.6667	1.75426	2.20698	45.539
12.7677	1.75426	2.20698	45.2727
12.8687	1.75426	2.20698	45
12.9697	1.75426	2.20698	44.7215
13.0707	1.75426	2.20698	44.4376
13.1717	1.75426	2.20698	44.1489
13.2727	1.75426	2.20698	43.8559
13.3737	1.75426	2.20698	43.5589
13.4747	1.75426	2.20698	43.2582
13.5758	1.75426	2.20698	42.954
13.6768	1.75426	2.20698	42.6464
13.7778	1.75426	2.20698	42.3352
13.8788	1.75426	2.20698	42.0204
13.9798	1.75426	2.20698	41.7017
14.0808	1.75426	2.20698	41.3786
14.1818	1.75426	2.20698	41.0507
14.2828	1.75426	2.20698	40.7171
14.3838	1.75426	2.20698	40.377
14.4848	1.75426	2.20698	40.0293
14.5859	1.75426	2.20698	39.6726
14.6869	1.75426	2.20698	39.3051
14.7879	1.75426	2.20698	38.9249
14.8889	1.75426	2.20698	38.5294
14.9899	1.75426	2.20698	38.1155
15.0909	1.75426	2.20698	37.6792
15.1919	1.75426	2.20698	37.2159
15.2929	1.75426	2.20698	36.7196
15.3939	1.75426	2.20698	36.183
15.4949	1.75426	2.20698	35.5968
15.596	1.75426	2.20698	34.9496
15.697	1.75426	2.20698	34.2259
15.798	1.75426	2.20698	33.4028
15.899	1.75426	2.20698	32.4208
16	1.75426	2.20698	-inf
6	1.7604	2.32725	58.0887
6.10101	1.7604	2.32725	58.0551
6.20202	1.7604	2.32725	58.0059
6.30303	1.7604	2.32725	57.9383
6.40404	1.7604	2.32725	57.8518
6.50505	1.7604	2.32725	57.747
6.60606	1.7604	2.32725	57.6257
6.70707	1.7604	2.32725	57.4898
6.80808	1.7604	2.32725	57.3417
6.90909	1.7604	2.32725	57.1833
7.0101	1.7604	2.32725	57.0163
7.11111	1.7604	2.32725	56.8425
7.21212	1.7604	2.32725	56.663
7.31313	1.7604	2.32725	56.4789
7.41414	1.7604	2.32725	56.2912
7.51515	1.7604	2.32725	56.1006
7.61616	1.7604	2.32725	55.9077
7.71717	1.7604	2.32725	55.7128
7.81818	1.7604	2.32725	55.5166
7.91919	1.7604	2.32725	55.3191
8.0202	1.7604	2.32725	55.1207
8.12121	1.7604	2.32725	54.9215
8.22222	1.7604	2.32725	54.7218
8.32323	1.7604	2.32725	54.5215
8.42424	1.7604	2.32725	54.3209
8.52525	1.7604	2.32725	54.1201
8.62626	1.7604	2.32725	53.9189
8.72727	1.7604	2.32725	53.7176
8.82828	1.7604	2.32725	53.5162
8.92929	1.7604	2.32725	53.3146
9.0303	1.7604	2.32725	53.1129
9.13131	1.7604	2.32725	52.9112
9.23232	1.7604	2.32725	52.7094
9.33333	1.7604	2.32725	52.5075
9.43434	1.7604	2.32725	52.3057
9.53535	1.7604	2.32725	52.1038
9.63636	1.7604	2.32725	51.9018
9.73737	1.7604	2.32725	51.6999
9.83838	1.7604	2.32725	51.4979
9.93939	1.7604	2.32725	51.2959
10.0404	1.7604	2.32725	51.0939
10.1414	1.7604	2.32725	50.8919
10.2424	1.7604	2.32725	50.6899
10.3434	1.7604	2.32725	50.4878
10.4444	1.7604	2.32725	50.2858
10.5455	1.7604	2.32725	50.0837
10.6465	1.7604	2.32725	49.8816
10.7475	1.7604	2.32725	49.6793
10.8485	1.7604	2.32725	49.477
10.9495	1.7604	2.32725	49.2746
11.0505	1.7604	2.32725	49.0719
11.1515	1.7604	2.32725	48.8689
11.2525	1.7604	2.32725	48.6655
11.3535	1.7604	2.32725	48.4613
11.4545	1.7604	2.32725	48.2563
11.5556	1.7604	2.32725	48.0499
11.6566	1.7604	2.32725	47.8417
11.7576	1.7604	2.32725	47.6312
11.8586	1.7604	2.32725	47.4176
11.9596	1.7604	2.32725	47.2002
12.0606	1.7604	2.32725	46.9783
12.1616	1.7604	2.32725	46.7509
12.2626	1.7604	2.32725	46.5175
12.3636	1.7604	2.32725	46.2776
12.4646	1.7604	2.32725	46.0307
12.5657	1.7604	2.32725	45.7769
12.6667	1.7604	2.32725	45.5161
12.7677	1.7604	2.32725	45.2487
12.8687	1.7604	2.32725	44.9751
12.9697	1.7604	2.32725	44.6958
13.0707	1.7604	2.32725	44.4113
13.1717	1.7604	2.32725	44.1221
13.2727	1.7604	2.32725	43.8286
13.3737	1.7604	2.32725	43.5313
13.4747	1.7604	2.32725	43.2303
13.5758	1.7604	2.32725	42.9258
13.6768	1.7604	2.32725	42.618
13.7778	1.7604	2.32725	42.3067
13.8788	1.7604	2.32725	41.9918
13.9798	1.7604	2.32725	41.673
14.0808	1.7604	2.32725	41.3498
14.1818	1.7604	2.32725	41.0218
14.2828	1.7604	2.32725	40.6882
14.3838	1.7604	2.32725	40.3481
14.4848	1.7604	2.32725	40.0003
14.5859	1.7604	2.32725	39.6436
14.6869	1.7604	2.32725	39.2761
14.7879	1.7604	2.32725	38.8959
14.8889	1.7604	2.32725	38.5004
14.9899	1.7604	2.32725	38.0864
15.0909	1.7604	2.32725	37.6501
15.1919	1.7604	2.32725	37.1868
15.2929	1.7604	2.32725	36.6905
15.3939	1.7604	2.32725	36.1539
15.4949	1.7604	2.32725	35.5678
15.596	1.7604	2.32725	34.9205
15.697	1.7604	2.32725	34.1969
15.798	1.7604	2.32725	33.3738
15.899	1.7604	2.32725	32.3918
16	1.7604	2.32725	-inf
6	1.76655	2.43451	58.1161
6.10101	1.76655	2.43451	58.0744
6.20202	1.76655	2.43451	58.0184
6.30303	1.76655	2.43451	57.9455
6.40404	1.76655	2.43451	57.8549
6.50505	1.76655	2.43451	57.7469
6.60606	1.76655	2.43451	57.6232
6.70707	1.76655	2.43451	57.4856
6.80808	1.76655	2.43451	57.336
6.90909	1.76655	2.43451	57.1765
7.0101	1.76655	2.43451	57.0087
7.11111	1.76655	2.43451	56.8342
7.21212	1.76655	2.43451	56.6542
7.31313	1.76655	2.43451	56.4697
7.41414	1.76655	2.43451	56.2817
7.51515	1.76655	2.43451	56.0909
7.61616	1.76655	2.43451	55.8977
7.71717	1.76655	2.43451	55.7028
7.81818	1.76655	2.43451	55.5064
7.91919	1.76655	2.43451	55.3088
8.0202	1.76655	2.43451	55.1103
8.12121	1.76655	2.43451	54.9111
8.22222	1.76655	2.43451	54.7113
8.32323	1.76655	2.43451	54.511
8.42424	1.76655	2.43451	54.3104
8.52525	1.76655	2.43451	54.1095
8.62626	1.76655	2.43451	53.9084
8.72727	1.76655	2.43451	53.707
8.82828	1.76655	2.43451	53.5056
8.92929	1.76655	2.43451	53.304
9.0303	1.76655	2.43451	53.1023
9.13131	1.76655	2.43451	52.9006
9.23232	1.76655	2.43451	52.6988
9.33333	1.76655	2.43451	52.4969
9.43434	1.76655	2.43451	52.295
9.53535	1.76655	2.43451	52.0931
9.63636	1.76655	2.43451	51.8912
9.73737	1.76655	2.43451	51.6892
9.83838	1.76655	2.43451	51.4873
9.93939	1.76655	2.43451	51.2853
10.0404	1.76655	2.43451	51.0833
10.1414	1.76655	2.43451	50.8812
10.2424	1.76655	2.43451	50.6792
10.3434	1.76655	2.43451	50.4771
10.4444	1.76655	2.43451	50.2751
10.5455	1.76655	2.43451	50.0729
10.6465	1.76655	2.43451	49.8707
10.7475	1.76655	2.43451	49.6685
10.8485	1.76655	2.43451	49.4661
10.9495	1.76655	2.43451	49.2635
11.0505	1.76655	2.43451	49.0606
11.1515	1.76655	2.43451	48.8574
11.2525	1.76655	2.43451	48.6536
11.3535	1.76655	2.43451	48.4491
11.4545	1.76655	2.43451	48.2435
11.5556	1.76655	2.43451	48.0365
11.6566	1.76655	2.43451	47.8275
11.7576	1.76655	2.43451	47.6161
11.8586	1.76655	2.43451	47.4015
11.9596	1.76655	2.43451	47.183
12.0606	1.76655	2.43451	46.9597
12.1616	1.76655	2.43451	46.7311
12.2626	1.76655	2.43451	46.4964
12.3636	1.76655	2.43451	46.2552
12.4646	1.76655	2.43451	46.0072
12.5657	1.76655	2.43451	45.7522
12.6667	1.76655	2.43451	45.4904
12.7677	1.76655	2.43451	45.2222
12.8687	1.76655	2.43451	44.9478
12.9697	1.76655	2.43451	44.6679
13.0707	1.76655	2.43451	44.3828
13.1717	1.76655	2.43451	44.0932
13.2727	1.76655	2.43451	43.7993
13.3737	1.76655	2.43451	43.5017
13.4747	1.76655	2.43451	43.2005
13.5758	1.76655	2.43451	42.8958
13.6768	1.76655	2.43451	42.5878
13.7778	1.76655	2.43451	42.2764
13.8788	1.76655	2.43451	41.9614
13.9798	1.76655	2.43451	41.6425
14.0808	1.76655	2.43451	41.3193
14.1818	1.76655	2.43451	40.9912
14.2828	1.76655	2.43451	40.6576
14.3838	1.76655	2.43451	40.3174
14.4848	1.76655	2.43451	39.9696
14.5859	1.76655	2.43451	39.6129
14.6869	1.76655	2.43451	39.2454
14.7879	1.76655	2.43451	38.8652
14.8889	1.76655	2.43451	38.4697
14.9899	1.76655	2.43451	38.0557
15.0909	1.76655	2.43451	37.6194
15.1919	1.76655	2.43451	37.1561
15.2929	1.76655	2.43451	36.6598
15.3939	1.76655	2.43451	36.1232
15.4949	1.76655	2.43451	35.537
15.596	1.76655	2.43451	34.8898
15.697	1.76655	2.43451	34.1661
15.798	1.76655	2.43451	33.343
15.899	1.76655	2.43451	32.361
16	1.76655	2.43451	-inf
6	1.77269	2.55042	58.141
6.10101	1.77269	2.55042	58.0928
6.20202	1.77269	2.55042	58.0315
6.30303	1.77269	2.55042	57.9544
6.40404	1.77269	2.55042	57.8604
6.50505	1.77269	2.55042	57.7499
6.60606	1.77269	2.55042	57.6242
6.70707	1.77269	2.55042	57.4851
6.80808	1.77269	2.55042	57.3344
6.90909	1.77269	2.55042	57.174
7.0101	1.77269	2.55042	57.0055
7.11111	1.77269	2.55042	56.8304
7.21212	1.77269	2.55042	56.65
7.31313	1.77269	2.55042	56.4652
7.41414	1.77269	2.55042	56.277
7.51515	1.77269	2.55042	56.0859
7.61616	1.77269	2.55042	55.8926
7.71717	1.77269	2.55042	55.6975
7.81818	1.77269	2.55042	55.501
7.91919	1.77269	2.55042	55.3034
8.0202	1.77269	2.55042	55.1048
8.12121	1.77269	2.55042	54.9056
8.22222	1.77269	2.55042	54.7057
8.32323	1.77269	2.55042	54.5054
8.42424	1.77269	2.55042	54.3048
8.52525	1.77269	2.55042	54.1039
8.62626	1.77269	2.55042	53.9027
8.72727	1.77269	2.55042	53.7014
8.82828	1.77269	2.55042	53.4999
8.92929	1.77269	2.55042	53.2983
9.0303	1.77269	2.55042	53.0966
9.13131	1.77269	2.55042	52.8949
9.23232	1.77269	2.55042	52.6931
9.33333	1.77269	2.55042	52.4912
9.43434	1.77269	2.55042	52.2893
9.53535	1.77269	2.55042	52.0874
9.63636	1.77269	2.55042	51.8855
9.73737	1.77269	2.55042	51.6835
9.83838	1.77269	2.55042	51.4815
9.93939	1.77269	2.55042	51.2795
10.0404	1.77269	2.55042	51.0775
10.1414	1.77269	2.55042	50.8755
10.2424	1.77269	2.55042	50.6735
10.3434	1.77269	2.55042	50.4714
10.4444	1.77269	2.55042	50.2693
10.5455	1.77269	2.55042	50.0671
10.6465	1.77269	2.55042	49.8649
10.7475	1.77269	2.55042	49.6625
10.8485	1.77269	2.55042	49.46
10.9495	1.77269	2.55042	49.2573
11.0505	1.77269	2.55042	49.0543
11.1515	1.77269	2.55042	48.8508
11.2525	1.77269	2.55042	48.6468
11.3535	1.77269	2.55042	48.4419
11.4545	1.77269	2.55042	48.2358
11.5556	1.77269	2.55042	48.0282
11.6566	1.77269	2.55042	47.8186
11.7576	1.77269	2.55042	47.6064
11.8586	1.77269	2.55042	47.3909
11.9596	1.77269	2.55042	47.1713
12.0606	1.77269	2.55042	46.9471
12.1616	1.77269	2.55042	46.7174
12.2626	1.77269	2.55042	46.4816
12.3636	1.77269	2.55042	46.2394
12.4646	1.77269	2.55042	45.9903
12.5657	1.77269	2.55042	45.7344
12.6667	1.77269	2.55042	45.4718
12.7677	1.77269	2.55042	45.2028
12.8687	1.77269	2.55042	44.9278
12.9697	1.77269	2.55042	44.6474
13.0707	1.77269	2.55042	44.3619
13.1717	1.77269	2.55042	44.0718
13.2727	1.77269	2.55042	43.7777
13.3737	1.77269	2.55042	43.4798
13.4747	1.77269	2.55042	43.1784
13.5758	1.77269	2.55042	42.8736
13.6768	1.77269	2.55042	42.5654
13.7778	1.77269	2.55042	42.2539
13.8788	1.77269	2.55042	41.9388
13.9798	1.77269	2.55042	41.6199
14.0808	1.77269	2.55042	41.2966
14.1818	1.77269	2.55042	40.9685
14.2828	1.77269	2.55042	40.6348
14.3838	1.77269	2.55042	40.2946
14.4848	1.77269	2.55042	39.9468
14.5859	1.77269	2.55042	39.59
14.6869	1.77269	2.55042	39.2226
14.7879	1.77269	2.55042	38.8423
14.8889	1.77269	2.55042	38.4468
14.9899	1.77269	2.55042	38.0328
15.0909	1.77269	2.55042	37.5966
15.1919	1.77269	2.55042	37.1332
15.2929	1.77269	2.55042	36.6369
15.3939	1.77269	2.55042	36.1003
15.4949	1.77269	2.55042	35.5142
15.596	1.77269	2.55042	34.8669
15.697	1.77269	2.55042	34.1433
15.798	1.77269	2.55042	33.3202
15.899	1.77269	2.55042	32.3381
16	1.77269	2.55042	-inf
6	1.77884	2.64674	58.1567
6.10101	1.77884	2.64674	58.1026
6.20202	1.77884	2.64674	58.0363
6.30303	1.77884	2.64674	57.9552
6.40404	1.77884	2.64674	57.858
6.50505	1.77884	2.64674	57.7451
6.60606	1.77884	2.64674	57.6175
6.70707	1.77884	2.64674	57.4769
6.80808	1.77884	2.64674	57.3251
6.90909	1.77884	2.64674	57.1638
7.0101	1.77884	2.64674	56.9947
7.11111	1.77884	2.64674	56.8191
7.21212	1.77884	2.64674	56.6383
7.31313	1.77884	2.64674	56.4532
7.41414	1.77884	2.64674	56.2647
7.51515	1.77884	2.64674	56.0734
7.61616	1.77884	2.64674	55.88
7.71717	1.77884	2.64674	55.6848
7.81818	1.77884	2.64674	55.4882
7.91919	1.77884	2.64674	55.2905
8.0202	1.77884	2.64674	55.0918
8.12121	1.77884	2.64674	54.8925
8.22222	1.77884	2.64674	54.6927
8.32323	1.77884	2.64674	54.4923
8.42424	1.77884	2.64674	54.2917
8.52525	1.77884	2.64674	54.0907
8.62626	1.77884	2.64674	53.8896
8.72727	1.77884	2.64674	53.6882
8.82828	1.77884	2.64674	53.4867
8.92929	1.77884	2.64674	53.2851
9.0303	1.77884	2.64674	53.0834
9.13131	1.77884	2.64674	52.8817
9.23232	1.77884	2.64674	52.6799
9.33333	1.77884	2.64674	52.478
9.43434	1.77884	2.64674	52.2761
9.53535	1.77884	2.64674	52.0742
9.63636	1.77884	2.64674	51.8723
9.73737	1.77884	2.64674	51.6703
9.83838	1.77884	2.64674	51.4683
9.93939	1.77884	2.64674	51.2663
10.0404	1.77884	2.64674	51.0643
10.1414	1.77884	2.64674	50.8622
10.2424	1.77884	2.64674	50.6602
10.3434	1.77884	2.64674	50.4581
10.4444	1.77884	2.64674	50.2559
10.5455	1.77884	2.64674	50.0537
10.6465	1.77884	2.64674	49.8514
10.7475	1.77884	2.64674	49.649
10.8485	1.77884	2.64674	49.4464
10.9495	1.77884	2.64674	49.2435
11.0505	1.77884	2.64674	49.0403
11.1515	1.77884	2.64674	48.8367
11.2525	1.77884	2.64674	48.6323
11.3535	1.77884	2.64674	48.427
11.4545	1.77884	2.64674	48.2205
11.5556	1.77884	2.64674	48.0123
11.6566	1.77884	2.64674	47.8021
11.7576	1.77884	2.64674	47.5891
11.8586	1.77884	2.64674	47.3728
11.9596	1.77884	2.64674	47.1523
12.0606	1.77884	2.64674	46.9271
12.1616	1.77884	2.64674	46.6965
12.2626	1.77884	2.64674	46.4597
12.3636	1.77884	2.64674	46.2165
12.4646	1.77884	2.64674	45.9666
12.5657	1.77884	2.64674	45.7099
12.6667	1.77884	2.64674	45.4466
12.7677	1.77884	2.64674	45.177
12.8687	1.77884	2.64674	44.9014
12.9697	1.77884	2.64674	44.6205
13.0707	1.77884	2.64674	44.3346
13.1717	1.77884	2.64674	44.0443
13.2727	1.77884	2.64674	43.7499
13.3737	1.77884	2.64674	43.4518
13.4747	1.77884	2.64674	43.1502
13.5758	1.77884	2.64674	42.8452
13.6768	1.77884	2.64674	42.537
13.7778	1.77884	2.64674	42.2254
13.8788	1.77884	2.64674	41.9102
13.9798	1.77884	2.64674	41.5912
14.0808	1.77884	2.64674	41.2679
14.1818	1.77884	2.64674	40.9398
14.2828	1.77884	2.64674	40.606
14.3838	1.77884	2.64674	40.2658
14.4848	1.77884	2.64674	39.918
14.5859	1.77884	2.64674	39.5612
14.6869	1.77884	2.64674	39.1938
14.7879	1.77884	2.64674	38.8135
14.8889	1.77884	2.64674	38.418
14.9899	1.77884	2.64674	38.004
15.0909	1.77884	2.64674	37.5677
15.1919	1.77884	2.64674	37.1044
15.2929	1.77884	2.64674	36.6081
15.3939	1.77884	2.64674	36.0714
15.4949	1.77884	2.64674	35.4853
15.596	1.77884	2.64674	34.8381
15.697	1.77884	2.64674	34.1144
15.798	1.77884	2.64674	33.2913
15.899	1.77884	2.64674	32.3093
16	1.77884	2.64674	-inf
6	1.78498	2.74464	58.1697
6.10101	1.78498	2.74464	58.1105
6.20202	1.78498	2.74464	58.04
6.30303	1.78498	2.74464	57.9555
6.40404	1.78498	2.74464	57.8557
6.50505	1.78498	2.74464	57.7407
6.60606	1.78498	2.74464	57.6115
6.70707	1.78498	2.74464	57.4696
6.80808	1.78498	2.74464	57.3169
6.90909	1.78498	2.74464	57.1548
7.0101	1.78498	2.74464	56.9851
7.11111	1.78498	2.74464	56.8091
7.21212	1.78498	2.74464	56.6279
7.31313	1.78498	2.74464	56.4426
7.41414	1.78498	2.74464	56.2538
7.51515	1.78498	2.74464	56.0624
7.61616	1.78498	2.74464	55.8688
7.71717	1.78498	2.74464	55.6735
7.81818	1.78498	2.74464	55.4768
7.91919	1.78498	2.74464	55.279
8.0202	1.78498	2.74464	55.0804
8.12121	1.78498	2.74464	54.881
8.22222	1.78498	2.74464	54.6811
8.32323	1.78498	2.74464	54.4808
8.42424	1.78498	2.74464	54.2801
8.52525	1.78498	2.74464	54.0791
8.62626	1.78498	2.74464	53.8779
8.72727	1.78498	2.74464	53.6766
8.82828	1.78498	2.74464	53.4751
8.92929	1.78498	2.74464	53.2735
9.0303	1.78498	2.74464	53.0718
9.13131	1.78498	2.74464	52.87
9.23232	1.78498	2.74464	52.6682
9.33333	1.78498	2.74464	52.4664
9.43434	1.78498	2.74464	52.2645
9.53535	1.78498	2.74464	52.0625
9.63636	1.78498	2.74464	51.8606
9.73737	1.78498	2.74464	51.6586
9.83838	1.78498	2.74464	51.4566
9.93939	1.78498	2.74464	51.2546
10.0404	1.78498	2.74464	51.0526
10.1414	1.78498	2.74464	50.8505
10.2424	1.78498	2.74464	50.6485
10.3434	1.78498	2.74464	50.4463
10.4444	1.78498	2.74464	50.2442
10.5455	1.78498	2.74464	50.0419
10.6465	1.78498	2.74464	49.8395
10.7475	1.78498	2.74464	49.637
10.8485	1.78498	2.74464	49.4343
10.9495	1.78498	2.74464	49.2313
11.0505	1.78498	2.74464	49.028
11.1515	1.78498	2.74464	48.824
11.2525	1.78498	2.74464	48.6194
11.3535	1.78498	2.74464	48.4138
11.4545	1.78498	2.74464	48.2068
11.5556	1.78498	2.74464	47.9982
11.6566	1.78498	2.74464	47.7873
11.7576	1.78498	2.74464	47.5737
11.8586	1.78498	2.74464	47.3566
11.9596	1.78498	2.74464	47.1354
12.0606	1.78498	2.74464	46.9094
12.1616	1.78498	2.74464	46.6778
12.2626	1.78498	2.74464	46.4403
12.3636	1.78498	2.74464	46.1963
12.4646	1.78498	2.74464	45.9456
12.5657	1.78498	2.74464	45.6882
12.6667	1.78498	2.74464	45.4243
12.7677	1.78498	2.74464	45.1541
12.8687	1.78498	2.74464	44.8781
12.9697	1.78498	2.74464	44.5968
13.0707	1.78498	2.74464	44.3106
13.1717	1.78498	2.74464	44.02
13.2727	1.78498	2.74464	43.7253
13.3737	1.78498	2.74464	43.427
13.4747	1.78498	2.74464	43.1253
13.5758	1.78498	2.74464	42.8202
13.6768	1.78498	2.74464	42.5119
13.7778	1.78498	2.74464	42.2002
13.8788	1.78498	2.74464	41.885
13.9798	1.78498	2.74464	41.5659
14.0808	1.78498	2.74464	41.2426
14.1818	1.78498	2.74464	40.9144
14.2828	1.78498	2.74464	40.5807
14.3838	1.78498	2.74464	40.2404
14.4848	1.78498	2.74464	39.8926
14.5859	1.78498	2.74464	39.5358
14.6869	1.78498	2.74464	39.1683
14.7879	1.78498	2.74464	38.7881
14.8889	1.78498	2.74464	38.3925
14.9899	1.78498	2.74464	37.9786
15.0909	1.78498	2.74464	37.5423
15.1919	1.78498	2.74464	37.0789
15.2929	1.78498	2.74464	36.5826
15.3939	1.78498	2.74464	36.046
15.4949	1.78498	2.74464	35.4599
15.596	1.78498	2.74464	34.8126
15.697	1.78498	2.74464	34.089
15.798	1.78498	2.74464	33.2659
15.899	1.78498	2.74464	32.2839
16	1.78498	2.74464	-inf
6	1.79112	2.84533	58.1809
6.10101	1.79112	2.84533	58.1176
6.20202	1.79112	2.84533	58.0435
6.30303	1.79112	2.84533	57.9561
6.40404	1.79112	2.84533	57.854
6.50505	1.79112	2.84533	57.7372
6.60606	1.79112	2.84533	57.6066
6.70707	1.79112	2.84533	57.4637
6.80808	1.79112	2.84533	57.3101
6.90909	1.79112	2.84533	57.1474
7.0101	1.79112	2.84533	56.9772
7.11111	1.79112	2.84533	56.8008
7.21212	1.79112	2.84533	56.6193
7.31313	1.79112	2.84533	56.4337
7.41414	1.79112	2.84533	56.2448
7.51515	1.79112	2.84533	56.0533
7.61616	1.79112	2.84533	55.8596
7.71717	1.79112	2.84533	55.6641
7.81818	1.79112	2.84533	55.4674
7.91919	1.79112	2.84533	55.2695
8.0202	1.79112	2.84533	55.0708
8.12121	1.79112	2.84533	54.8714
8.22222	1.79112	2.84533	54.6715
8.32323	1.79112	2.84533	54.4711
8.42424	1.79112	2.84533	54.2704
8.52525	1.79112	2.84533	54.0695
8.62626	1.79112	2.84533	53.8683
8.72727	1.79112	2.84533	53.6669
8.82828	1.79112	2.84533	53.4654
8.92929	1.79112	2.84533	53.2638
9.0303	1.79112	2.84533	53.0621
9.13131	1.79112	2.84533	52.8603
9.23232	1.79112	2.84533	52.6585
9.33333	1.79112	2.84533	52.4566
9.43434	1.79112	2.84533	52.2547
9.53535	1.79112	2.84533	52.0528
9.63636	1.79112	2.84533	51.8509
9.73737	1.79112	2.84533	51.6489
9.83838	1.79112	2.84533	51.4469
9.93939	1.79112	2.84533	51.2449
10.0404	1.79112	2.84533	51.0428
10.1414	1.79112	2.84533	50.8408
10.2424	1.79112	2.84533	50.6387
10.3434	1.79112	2.84533	50.4365
10.4444	1.79112	2.84533	50.2343
10.5455	1.79112	2.84533	50.032
10.6465	1.79112	2.84533	49.8296
10.7475	1.79112	2.84533	49.627
10.8485	1.79112	2.84533	49.4242
10.9495	1.79112	2.84533	49.2211
11.0505	1.79112	2.84533	49.0175
11.1515	1.79112	2.84533	48.8134
11.2525	1.79112	2.84533	48.6085
11.3535	1.79112	2.84533	48.4026
11.4545	1.79112	2.84533	48.1952
11.5556	1.79112	2.84533	47.9861
11.6566	1.79112	2.84533	47.7747
11.7576	1.79112	2.84533	47.5605
11.8586	1.79112	2.84533	47.3428
11.9596	1.79112	2.84533	47.1209
12.0606	1.79112	2.84533	46.8941
12.1616	1.79112	2.84533	46.6618
12.2626	1.79112	2.84533	46.4235
12.3636	1.79112	2.84533	46.1788
12.4646	1.79112	2.84533	45.9275
12.5657	1.79112	2.84533	45.6695
12.6667	1.79112	2.84533	45.405
12.7677	1.79112	2.84533	45.1344
12.8687	1.79112	2.84533	44.858
12.9697	1.79112	2.84533	44.5763
13.0707	1.79112	2.84533	44.2898
13.1717	1.79112	2.84533	43.9989
13.2727	1.79112	2.84533	43.7041
13.3737	1.79112	2.84533	43.4056
13.4747	1.79112	2.84533	43.1037
13.5758	1.79112	2.84533	42.7986
13.6768	1.79112	2.84533	42.4902
13.7778	1.79112	2.84533	42.1784
13.8788	1.79112	2.84533	41.8631
13.9798	1.79112	2.84533	41.544
14.0808	1.79112	2.84533	41.2206
14.1818	1.79112	2.84533	40.8924
14.2828	1.79112	2.84533	40.5587
14.3838	1.79112	2.84533	40.2185
14.4848	1.79112	2.84533	39.8706
14.5859	1.79112	2.84533	39.5138
14.6869	1.79112	2.84533	39.1463
14.7879	1.79112	2.84533	38.7661
14.8889	1.79112	2.84533	38.3705
14.9899	1.79112	2.84533	37.9565
15.0909	1.79112	2.84533	37.5202
15.1919	1.79112	2.84533	37.0569
15.2929	1.79112	2.84533	36.5606
15.3939	1.79112	2.84533	36.024
15.4949	1.79112	2.84533	35.4378
15.596	1.79112	2.84533	34.7906
15.697	1.79112	2.84533	34.0669
15.798	1.79112	2.84533	33.2438
15.899	1.79112	2.84533	32.2618
16	1.79112	2.84533	-inf
6	1.79727	2.92911	58.1848
6.10101	1.79727	2.92911	58.1175
6.20202	1.79727	2.92911	58.0401
6.30303	1.79727	2.92911	57.9499
6.40404	1.79727	2.92911	57.8455
6.50505	1.79727	2.92911	57.727
6.60606	1.79727	2.92911	57.5951
6.70707	1.79727	2.92911	57.4511
6.80808	1.79727	2.92911	57.2967
6.90909	1.79727	2.92911	57.1335
7.0101	1.79727	2.92911	56.9628
7.11111	1.79727	2.92911	56.786
7.21212	1.79727	2.92911	56.6042
7.31313	1.79727	2.92911	56.4184
7.41414	1.79727	2.92911	56.2293
7.51515	1.79727	2.92911	56.0376
7.61616	1.79727	2.92911	55.8437
7.71717	1.79727	2.92911	55.6483
7.81818	1.79727	2.92911	55.4514
7.91919	1.79727	2.92911	55.2535
8.0202	1.79727	2.92911	55.0548
8.12121	1.79727	2.92911	54.8553
8.22222	1.79727	2.92911	54.6554
8.32323	1.79727	2.92911	54.455
8.42424	1.79727	2.92911	54.2543
8.52525	1.79727	2.92911	54.0533
8.62626	1.79727	2.92911	53.8521
8.72727	1.79727	2.92911	53.6507
8.82828	1.79727	2.92911	53.4492
8.92929	1.79727	2.92911	53.2476
9.0303	1.79727	2.92911	53.0459
9.13131	1.79727	2.92911	52.8441
9.23232	1.79727	2.92911	52.6423
9.33333	1.79727	2.92911	52.4404
9.43434	1.79727	2.92911	52.2385
9.53535	1.79727	2.92911	52.0366
9.63636	1.79727	2.92911	51.8346
9.73737	1.79727	2.92911	51.6326
9.83838	1.79727	2.92911	51.4306
9.93939	1.79727	2.92911	51.2286
10.0404	1.79727	2.92911	51.0266
10.1414	1.79727	2.92911	50.8245
10.2424	1.79727	2.92911	50.6223
10.3434	1.79727	2.92911	50.4202
10.4444	1.79727	2.92911	50.2179
10.5455	1.79727	2.92911	50.0156
10.6465	1.79727	2.92911	49.8131
10.7475	1.79727	2.92911	49.6104
10.8485	1.79727	2.92911	49.4075
10.9495	1.79727	2.92911	49.2042
11.0505	1.79727	2.92911	49.0005
11.1515	1.79727	2.92911	48.7962
11.2525	1.79727	2.92911	48.591
11.3535	1.79727	2.92911	48.3848
11.4545	1.79727	2.92911	48.1771
11.5556	1.79727	2.92911	47.9675
11.6566	1.79727	2.92911	47.7557
11.7576	1.79727	2.92911	47.5409
11.8586	1.79727	2.92911	47.3225
11.9596	1.79727	2.92911	47.1
12.0606	1.79727	2.92911	46.8725
12.1616	1.79727	2.92911	46.6396
12.2626	1.79727	2.92911	46.4006
12.3636	1.79727	2.92911	46.1553
12.4646	1.79727	2.92911	45.9033
12.5657	1.79727	2.92911	45.6448
12.6667	1.79727	2.92911	45.3799
12.7677	1.79727	2.92911	45.1088
12.8687	1.79727	2.92911	44.8321
12.9697	1.79727	2.92911	44.5501
13.0707	1.79727	2.92911	44.2633
13.1717	1.79727	2.92911	43.9722
13.2727	1.79727	2.92911	43.6772
13.3737	1.79727	2.92911	43.3786
13.4747	1.79727	2.92911	43.0767
13.5758	1.79727	2.92911	42.7714
13.6768	1.79727	2.92911	42.4629
13.7778	1.79727	2.92911	42.1511
13.8788	1.79727	2.92911	41.8358
13.9798	1.79727	2.92911	41.5166
14.0808	1.79727	2.92911	41.1932
14.1818	1.79727	2.92911	40.865
14.2828	1.79727	2.92911	40.5312
14.3838	1.79727	2.92911	40.191
14.4848	1.79727	2.92911	39.8432
14.5859	1.79727	2.92911	39.4863
14.6869	1.79727	2.92911	39.1188
14.7879	1.79727	2.92911	38.7386
14.8889	1.79727	2.92911	38.343
14.9899	1.79727	2.92911	37.929
15.0909	1.79727	2.92911	37.4927
15.1919	1.79727	2.92911	37.0294
15.2929	1.79727	2.92911	36.5331
15.3939	1.79727	2.92911	35.9965
15.4949	1.79727	2.92911	35.4103
15.596	1.79727	2.92911	34.7631
15.697	1.79727	2.92911	34.0394
15.798	1.79727	2.92911	33.2163
15.899	1.79727	2.92911	32.2343
16	1.79727	2.92911	-inf
6	1.80341	3.01725	58.1882
6.10101	1.80341	3.01725	58.1175
6.20202	1.80341	3.01725	58.0372
6.30303	1.80341	3.01725	57.9447
6.40404	1.80341	3.01725	57.8385
6.50505	1.80341	3.01725	57.7184
6.60606	1.80341	3.01725	57.5854
6.70707	1.80341	3.01725	57.4405
6.80808	1.80341	3.01725	57.2854
6.90909	1.80341	3.01725	57.1216
7.0101	1.80341	3.01725	56.9505
7.11111	1.80341	3.01725	56.7734
7.21212	1.80341	3.01725	56.5914
7.31313	1.80341	3.01725	56.4053
7.41414	1.80341	3.01725	56.2161
7.51515	1.80341	3.01725	56.0243
7.61616	1.80341	3.01725	55.8303
7.71717	1.80341	3.01725	55.6348
7.81818	1.80341	3.01725	55.4379
7.91919	1.80341	3.01725	55.2399
8.0202	1.80341	3.01725	55.0411
8.12121	1.80341	3.01725	54.8417
8.22222	1.80341	3.01725	54.6417
8.32323	1.80341	3.01725	54.4413
8.42424	1.80341	3.01725	54.2406
8.52525	1.80341	3.01725	54.0396
8.62626	1.80341	3.01725	53.8383
8.72727	1.80341	3.01725	53.637
8.82828	1.80341	3.01725	53.4354
8.92929	1.80341	3.01725	53.2338
9.0303	1.80341	3.01725	53.0321
9.13131	1.80341	3.01725	52.8303
9.23232	1.80341	3.01725	52.6285
9.33333	1.80341	3.01725	52.4266
9.43434	1.80341	3.01725	52.2247
9.53535	1.80341	3.01725	52.0228
9.63636	1.80341	3.01725	51.8208
9.73737	1.80341	3.01725	51.6189
9.83838	1.80341	3.01725	51.4168
9.93939	1.80341	3.01725	51.2148
10.0404	1.80341	3.01725	51.0127
10.1414	1.80341	3.01725	50.8106
10.2424	1.80341	3.01725	50.6085
10.3434	1.80341	3.01725	50.4063
10.4444	1.80341	3.01725	50.204
10.5455	1.80341	3.01725	50.0016
10.6465	1.80341	3.01725	49.799
10.7475	1.80341	3.01725	49.5963
10.8485	1.80341	3.01725	49.3933
10.9495	1.80341	3.01725	49.1899
11.0505	1.80341	3.01725	48.986
11.1515	1.80341	3.01725	48.7815
11.2525	1.80341	3.01725	48.5761
11.3535	1.80341	3.01725	48.3695
11.4545	1.80341	3.01725	48.1615
11.5556	1.80341	3.01725	47.9516
11.6566	1.80341	3.01725	47.7392
11.7576	1.80341	3.01725	47.524
11.8586	1.80341	3.01725	47.3051
11.9596	1.80341	3.01725	47.0819
12.0606	1.80341	3.01725	46.8539
12.1616	1.80341	3.01725	46.6204
12.2626	1.80341	3.01725	46.3808
12.3636	1.80341	3.01725	46.1349
12.4646	1.80341	3.01725	45.8824
12.5657	1.80341	3.01725	45.6234
12.6667	1.80341	3.01725	45.3581
12.7677	1.80341	3.01725	45.0866
12.8687	1.80341	3.01725	44.8096
12.9697	1.80341	3.01725	44.5273
13.0707	1.80341	3.01725	44.2403
13.1717	1.80341	3.01725	43.949
13.2727	1.80341	3.01725	43.6539
13.3737	1.80341	3.01725	43.3552
13.4747	1.80341	3.01725	43.0531
13.5758	1.80341	3.01725	42.7477
13.6768	1.80341	3.01725	42.4392
13.7778	1.80341	3.01725	42.1273
13.8788	1.80341	3.01725	41.812
13.9798	1.80341	3.01725	41.4928
14.0808	1.80341	3.01725	41.1694
14.1818	1.80341	3.01725	40.8411
14.2828	1.80341	3.01725	40.5073
14.3838	1.80341	3.01725	40.1671
14.4848	1.80341	3.01725	39.8192
14.5859	1.80341	3.01725	39.4624
14.6869	1.80341	3.01725	39.0949
14.7879	1.80341	3.01725	38.7146
14.8889	1.80341	3.01725	38.3191
14.9899	1.80341	3.01725	37.9051
15.0909	1.80341	3.01725	37.4688
15.1919	1.80341	3.01725	37.0055
15.2929	1.80341	3.01725	36.5091
15.3939	1.80341	3.01725	35.9725
15.4949	1.80341	3.01725	35.3864
15.596	1.80341	3.01725	34.7391
15.697	1.80341	3.01725	34.0155
15.798	1.80341	3.01725	33.1924
15.899	1.80341	3.01725	32.2104
16	1.80341	3.01725	-inf
6	1.80955	3.11051	58.1917
6.10101	1.80955	3.11051	58.1183
6.20202	1.80955	3.11051	58.0355
6.30303	1.80955	3.11051	57.9409
6.40404	1.80955	3.11051	57.8331
6.50505	1.80955	3.11051	57.7118
6.60606	1.80955	3.11051	57.5778
6.70707	1.80955	3.11051	57.4322
6.80808	1.80955	3.11051	57.2765
6.90909	1.80955	3.11051	57.1122
7.0101	1.80955	3.11051	56.9407
7.11111	1.80955	3.11051	56.7633
7.21212	1.80955	3.11051	56.5811
7.31313	1.80955	3.11051	56.3949
7.41414	1.80955	3.11051	56.2055
7.51515	1.80955	3.11051	56.0135
7.61616	1.80955	3.11051	55.8196
7.71717	1.80955	3.11051	55.6239
7.81818	1.80955	3.11051	55.427
7.91919	1.80955	3.11051	55.229
8.0202	1.80955	3.11051	55.0302
8.12121	1.80955	3.11051	54.8307
8.22222	1.80955	3.11051	54.6307
8.32323	1.80955	3.11051	54.4303
8.42424	1.80955	3.11051	54.2295
8.52525	1.80955	3.11051	54.0285
8.62626	1.80955	3.11051	53.8273
8.72727	1.80955	3.11051	53.6259
8.82828	1.80955	3.11051	53.4244
8.92929	1.80955	3.11051	53.2227
9.0303	1.80955	3.11051	53.021
9.13131	1.80955	3.11051	52.8192
9.23232	1.80955	3.11051	52.6174
9.33333	1.80955	3.11051	52.4155
9.43434	1.80955	3.11051	52.2136
9.53535	1.80955	3.11051	52.0117
9.63636	1.80955	3.11051	51.8097
9.73737	1.80955	3.11051	51.6077
9.83838	1.80955	3.11051	51.4057
9.93939	1.80955	3.11051	51.2037
10.0404	1.80955	3.11051	51.0016
10.1414	1.80955	3.11051	50.7995
10.2424	1.80955	3.11051	50.5973
10.3434	1.80955	3.11051	50.3951
10.4444	1.80955	3.11051	50.1927
10.5455	1.80955	3.11051	49.9903
10.6465	1.80955	3.11051	49.7877
10.7475	1.80955	3.11051	49.5849
10.8485	1.80955	3.11051	49.3818
10.9495	1.80955	3.11051	49.1783
11.0505	1.80955	3.11051	48.9742
11.1515	1.80955	3.11051	48.7695
11.2525	1.80955	3.11051	48.5639
11.3535	1.80955	3.11051	48.3571
11.4545	1.80955	3.11051	48.1487
11.5556	1.80955	3.11051	47.9385
11.6566	1.80955	3.11051	47.7257
11.7576	1.80955	3.11051	47.51
11.8586	1.80955	3.11051	47.2906
11.9596	1.80955	3.11051	47.0669
12.0606	1.80955	3.11051	46.8384
12.1616	1.80955	3.11051	46.6043
12.2626	1.80955	3.11051	46.3642
12.3636	1.80955	3.11051	46.1178
12.4646	1.80955	3.11051	45.8648
12.5657	1.80955	3.11051	45.6054
12.6667	1.80955	3.11051	45.3396
12.7677	1.80955	3.11051	45.0679
12.8687	1.80955	3.11051	44.7905
12.9697	1.80955	3.11051	44.508
13.0707	1.80955	3.11051	44.2208
13.1717	1.80955	3.11051	43.9293
13.2727	1.80955	3.11051	43.634
13.3737	1.80955	3.11051	43.3352
13.4747	1.80955	3.11051	43.033
13.5758	1.80955	3.11051	42.7276
13.6768	1.80955	3.11051	42.419
13.7778	1.80955	3.11051	42.1071
13.8788	1.80955	3.11051	41.7917
13.9798	1.80955	3.11051	41.4724
14.0808	1.80955	3.11051	41.149
14.1818	1.80955	3.11051	40.8207
14.2828	1.80955	3.11051	40.4869
14.3838	1.80955	3.11051	40.1467
14.4848	1.80955	3.11051	39.7988
14.5859	1.80955	3.11051	39.442
14.6869	1.80955	3.11051	39.0745
14.7879	1.80955	3.11051	38.6942
14.8889	1.80955	3.11051	38.2986
14.9899	1.80955	3.11051	37.8846
15.0909	1.80955	3.11051	37.4483
15.1919	1.80955	3.11051	36.985
15.2929	1.80955	3.11051	36.4887
15.3939	1.80955	3.11051	35.9521
15.4949	1.80955	3.11051	35.3659
15.596	1.80955	3.11051	34.7187
15.697	1.80955	3.11051	33.995
15.798	1.80955	3.11051	33.1719
15.899	1.80955	3.11051	32.1899
16	1.80955	3.11051	-inf
6	1.8157	3.18849	58.189
6.10101	1.8157	3.18849	58.1128
6.20202	1.8157	3.18849	58.0277
6.30303	1.8157	3.18849	57.9312
6.40404	1.8157	3.18849	57.8218
6.50505	1.8157	3.18849	57.6993
6.60606	1.8157	3.18849	57.5642
6.70707	1.8157	3.18849	57.4179
6.80808	1.8157	3.18849	57.2616
6.90909	1.8157	3.18849	57.0968
7.0101	1.8157	3.18849	56.925
7.11111	1.8157	3.18849	56.7473
7.21212	1.8157	3.18849	56.5649
7.31313	1.8157	3.18849	56.3785
7.41414	1.8157	3.18849	56.189
7.51515	1.8157	3.18849	55.9969
7.61616	1.8157	3.18849	55.8028
7.71717	1.8157	3.18849	55.6071
7.81818	1.8157	3.18849	55.4102
7.91919	1.8157	3.18849	55.2121
8.0202	1.8157	3.18849	55.0133
8.12121	1.8157	3.18849	54.8138
8.22222	1.8157	3.18849	54.6137
8.32323	1.8157	3.18849	54.4133
8.42424	1.8157	3.18849	54.2125
8.52525	1.8157	3.18849	54.0115
8.62626	1.8157	3.18849	53.8103
8.72727	1.8157	3.18849	53.6089
8.82828	1.8157	3.18849	53.4074
8.92929	1.8157	3.18849	53.2057
9.0303	1.8157	3.18849	53.004
9.13131	1.8157	3.18849	52.8022
9.23232	1.8157	3.18849	52.6004
9.33333	1.8157	3.18849	52.3985
9.43434	1.8157	3.18849	52.1966
9.53535	1.8157	3.18849	51.9947
9.63636	1.8157	3.18849	51.7927
9.73737	1.8157	3.18849	51.5907
9.83838	1.8157	3.18849	51.3887
9.93939	1.8157	3.18849	51.1866
10.0404	1.8157	3.18849	50.9845
10.1414	1.8157	3.18849	50.7824
10.2424	1.8157	3.18849	50.5802
10.3434	1.8157	3.18849	50.3779
10.4444	1.8157	3.18849	50.1755
10.5455	1.8157	3.18849	49.9731
10.6465	1.8157	3.18849	49.7704
10.7475	1.8157	3.18849	49.5675
10.8485	1.8157	3.18849	49.3643
10.9495	1.8157	3.18849	49.1607
11.0505	1.8157	3.18849	48.9565
11.1515	1.8157	3.18849	48.7516
11.2525	1.8157	3.18849	48.5458
11.3535	1.8157	3.18849	48.3387
11.4545	1.8157	3.18849	48.1301
11.5556	1.8157	3.18849	47.9194
11.6566	1.8157	3.18849	47.7063
11.7576	1.8157	3.18849	47.4901
11.8586	1.8157	3.18849	47.2703
11.9596	1.8157	3.18849	47.0462
12.0606	1.8157	3.18849	46.8171
12.1616	1.8157	3.18849	46.5825
12.2626	1.8157	3.18849	46.3419
12.3636	1.8157	3.18849	46.0951
12.4646	1.8157	3.18849	45.8417
12.5657	1.8157	3.18849	45.5819
12.6667	1.8157	3.18849	45.3158
12.7677	1.8157	3.18849	45.0437
12.8687	1.8157	3.18849	44.766
12.9697	1.8157	3.18849	44.4833
13.0707	1.8157	3.18849	44.1959
13.1717	1.8157	3.18849	43.9043
13.2727	1.8157	3.18849	43.6089
13.3737	1.8157	3.18849	43.31
13.4747	1.8157	3.18849	43.0077
13.5758	1.8157	3.18849	42.7022
13.6768	1.8157	3.18849	42.3936
13.7778	1.8157	3.18849	42.0816
13.8788	1.8157	3.18849	41.7662
13.9798	1.8157	3.18849	41.4469
14.0808	1.8157	3.18849	41.1235
14.1818	1.8157	3.18849	40.7952
14.2828	1.8157	3.18849	40.4614
14.3838	1.8157	3.18849	40.1211
14.4848	1.8157	3.18849	39.7732
14.5859	1.8157	3.18849	39.4164
14.6869	1.8157	3.18849	39.0489
14.7879	1.8157	3.18849	38.6686
14.8889	1.8157	3.18849	38.273
14.9899	1.8157	3.18849	37.859
15.0909	1.8157	3.18849	37.4228
15.1919	1.8157	3.18849	36.9594
15.2929	1.8157	3.18849	36.4631
15.3939	1.8157	3.18849	35.9265
15.4949	1.8157	3.18849	35.3403
15.596	1.8157	3.18849	34.6931
15.697	1.8157	3.18849	33.9694
15.798	1.8157	3.18849	33.1463
15.899	1.8157	3.18849	32.1643
16	1.8157	3.18849	-inf
6	1.82184	3.27262	58.1872
6.10101	1.82184	3.27262	58.1087
6.20202	1.82184	3.27262	58.0216
6.30303	1.82184	3.27262	57.9234
6.40404	1.82184	3.27262	57.8126
6.50505	1.82184	3.27262	57.689
6.60606	1.82184	3.27262	57.5532
6.70707	1.82184	3.27262	57.4062
6.80808	1.82184	3.27262	57.2494
6.90909	1.82184	3.27262	57.0842
7.0101	1.82184	3.27262	56.9121
7.11111	1.82184	3.27262	56.7342
7.21212	1.82184	3.27262	56.5515
7.31313	1.82184	3.27262	56.365
7.41414	1.82184	3.27262	56.1754
7.51515	1.82184	3.27262	55.9832
7.61616	1.82184	3.27262	55.7891
7.71717	1.82184	3.27262	55.5933
7.81818	1.82184	3.27262	55.3963
7.91919	1.82184	3.27262	55.1982
8.0202	1.82184	3.27262	54.9993
8.12121	1.82184	3.27262	54.7998
8.22222	1.82184	3.27262	54.5998
8.32323	1.82184	3.27262	54.3993
8.42424	1.82184	3.27262	54.1985
8.52525	1.82184	3.27262	53.9975
8.62626	1.82184	3.27262	53.7963
8.72727	1.82184	3.27262	53.5949
8.82828	1.82184	3.27262	53.3933
8.92929	1.82184	3.27262	53.1917
9.0303	1.82184	3.27262	52.99
9.13131	1.82184	3.27262	52.7882
9.23232	1.82184	3.27262	52.5864
9.33333	1.82184	3.27262	52.3845
9.43434	1.82184	3.27262	52.1826
9.53535	1.82184	3.27262	51.9806
9.63636	1.82184	3.27262	51.7786
9.73737	1.82184	3.27262	51.5766
9.83838	1.82184	3.27262	51.3746
9.93939	1.82184	3.27262	51.1725
10.0404	1.82184	3.27262	50.9704
10.1414	1.82184	3.27262	50.7683
10.2424	1.82184	3.27262	50.566
10.3434	1.82184	3.27262	50.3638
10.4444	1.82184	3.27262	50.1614
10.5455	1.82184	3.27262	49.9588
10.6465	1.82184	3.27262	49.7561
10.7475	1.82184	3.27262	49.5531
10.8485	1.82184	3.27262	49.3498
10.9495	1.82184	3.27262	49.1461
11.0505	1.82184	3.27262	48.9418
11.1515	1.82184	3.27262	48.7367
11.2525	1.82184	3.27262	48.5307
11.3535	1.82184	3.27262	48.3234
11.4545	1.82184	3.27262	48.1145
11.5556	1.82184	3.27262	47.9035
11.6566	1.82184	3.27262	47.6901
11.7576	1.82184	3.27262	47.4735
11.8586	1.82184	3.27262	47.2533
11.9596	1.82184	3.27262	47.0287
12.0606	1.82184	3.27262	46.7992
12.1616	1.82184	3.27262	46.5641
12.2626	1.82184	3.27262	46.3231
12.3636	1.82184	3.27262	46.0758
12.4646	1.82184	3.27262	45.822
12.5657	1.82184	3.27262	45.5618
12.6667	1.82184	3.27262	45.2954
12.7677	1.82184	3.27262	45.023
12.8687	1.82184	3.27262	44.7452
12.9697	1.82184	3.27262	44.4622
13.0707	1.82184	3.27262	44.1747
13.1717	1.82184	3.27262	43.8829
13.2727	1.82184	3.27262	43.5874
13.3737	1.82184	3.27262	43.2884
13.4747	1.82184	3.27262	42.986
13.5758	1.82184	3.27262	42.6805
13.6768	1.82184	3.27262	42.3717
13.7778	1.82184	3.27262	42.0598
13.8788	1.82184	3.27262	41.7443
13.9798	1.82184	3.27262	41.425
14.0808	1.82184	3.27262	41.1015
14.1818	1.82184	3.27262	40.7733
14.2828	1.82184	3.27262	40.4394
14.3838	1.82184	3.27262	40.0991
14.4848	1.82184	3.27262	39.7513
14.5859	1.82184	3.27262	39.3944
14.6869	1.82184	3.27262	39.0269
14.7879	1.82184	3.27262	38.6466
14.8889	1.82184	3.27262	38.251
14.9899	1.82184	3.27262	37.837
15.0909	1.82184	3.27262	37.4008
15.1919	1.82184	3.27262	36.9374
15.2929	1.82184	3.27262	36.4411
15.3939	1.82184	3.27262	35.9045
15.4949	1.82184	3.27262	35.3183
15.596	1.82184	3.27262	34.6711
15.697	1.82184	3.27262	33.9474
15.798	1.82184	3.27262	33.1243
15.899	1.82184	3.27262	32.1423
16	1.82184	3.27262	-inf
6	1.82798	3.35278	58.1832
6.10101	1.82798	3.35278	58.1025
6.20202	1.82798	3.35278	58.0136
6.30303	1.82798	3.35278	57.9138
6.40404	1.82798	3.35278	57.8018
6.50505	1.82798	3.35278	57.6773
6.60606	1.82798	3.35278	57.5406
6.70707	1.82798	3.35278	57.393
6.80808	1.82798	3.35278	57.2358
6.90909	1.82798	3.35278	57.0703
7.0101	1.82798	3.35278	56.8979
7.11111	1.82798	3.35278	56.7197
7.21212	1.82798	3.35278	56.5369
7.31313	1.82798	3.35278	56.3502
7.41414	1.82798	3.35278	56.1605
7.51515	1.82798	3.35278	55.9683
7.61616	1.82798	3.35278	55.774
7.71717	1.82798	3.35278	55.5782
7.81818	1.82798	3.35278	55.3811
7.91919	1.82798	3.35278	55.183
8.0202	1.82798	3.35278	54.9841
8.12121	1.82798	3.35278	54.7846
8.22222	1.82798	3.35278	54.5845
8.32323	1.82798	3.35278	54.3841
8.42424	1.82798	3.35278	54.1833
8.52525	1.82798	3.35278	53.9822
8.62626	1.82798	3.35278	53.781
8.72727	1.82798	3.35278	53.5796
8.82828	1.82798	3.35278	53.378
8.92929	1.82798	3.35278	53.1764
9.0303	1.82798	3.35278	52.9747
9.13131	1.82798	3.35278	52.7729
9.23232	1.82798	3.35278	52.5711
9.33333	1.82798	3.35278	52.3692
9.43434	1.82798	3.35278	52.1673
9.53535	1.82798	3.35278	51.9653
9.63636	1.82798	3.35278	51.7633
9.73737	1.82798	3.35278	51.5613
9.83838	1.82798	3.35278	51.3593
9.93939	1.82798	3.35278	51.1572
10.0404	1.82798	3.35278	50.9551
10.1414	1.82798	3.35278	50.7529
10.2424	1.82798	3.35278	50.5506
10.3434	1.82798	3.35278	50.3483
10.4444	1.82798	3.35278	50.1459
10.5455	1.82798	3.35278	49.9433
10.6465	1.82798	3.35278	49.7405
10.7475	1.82798	3.35278	49.5375
10.8485	1.82798	3.35278	49.3341
10.9495	1.82798	3.35278	49.1303
11.0505	1.82798	3.35278	48.9258
11.1515	1.82798	3.35278	48.7206
11.2525	1.82798	3.35278	48.5144
11.3535	1.82798	3.35278	48.3069
11.4545	1.82798	3.35278	48.0977
11.5556	1.82798	3.35278	47.8864
11.6566	1.82798	3.35278	47.6726
11.7576	1.82798	3.35278	47.4557
11.8586	1.82798	3.35278	47.2351
11.9596	1.82798	3.35278	47.0101
12.0606	1.82798	3.35278	46.7802
12.1616	1.82798	3.35278	46.5447
12.2626	1.82798	3.35278	46.3033
12.3636	1.82798	3.35278	46.0556
12.4646	1.82798	3.35278	45.8015
12.5657	1.82798	3.35278	45.5409
12.6667	1.82798	3.35278	45.2742
12.7677	1.82798	3.35278	45.0016
12.8687	1.82798	3.35278	44.7235
12.9697	1.82798	3.35278	44.4403
13.0707	1.82798	3.35278	44.1526
13.1717	1.82798	3.35278	43.8608
13.2727	1.82798	3.35278	43.5651
13.3737	1.82798	3.35278	43.266
13.4747	1.82798	3.35278	42.9636
13.5758	1.82798	3.35278	42.658
13.6768	1.82798	3.35278	42.3492
13.7778	1.82798	3.35278	42.0372
13.8788	1.82798	3.35278	41.7217
13.9798	1.82798	3.35278	41.4024
14.0808	1.82798	3.35278	41.0789
14.1818	1.82798	3.35278	40.7506
14.2828	1.82798	3.35278	40.4167
14.3838	1.82798	3.35278	40.0764
14.4848	1.82798	3.35278	39.7286
14.5859	1.82798	3.35278	39.3717
14.6869	1.82798	3.35278	39.0042
14.7879	1.82798	3.35278	38.6239
14.8889	1.82798	3.35278	38.2283
14.9899	1.82798	3.35278	37.8143
15.0909	1.82798	3.35278	37.3781
15.1919	1.82798	3.35278	36.9147
15.2929	1.82798	3.35278	36.4184
15.3939	1.82798	3.35278	35.8818
15.4949	1.82798	3.35278	35.2956
15.596	1.82798	3.35278	34.6484
15.697	1.82798	3.35278	33.9247
15.798	1.82798	3.35278	33.1016
15.899	1.82798	3.35278	32.1196
16	1.82798	3.35278	-inf
6	1.83413	3.42931	58.177
6.10101	1.83413	3.42931	58.0944
6.20202	1.83413	3.42931	58.0038
6.30303	1.83413	3.42931	57.9027
6.40404	1.83413	3.42931	57.7896
6.50505	1.83413	3.42931	57.6641
6.60606	1.83413	3.42931	57.5267
6.70707	1.83413	3.42931	57.3786
6.80808	1.83413	3.42931	57.2209
6.90909	1.83413	3.42931	57.055
7.0101	1.83413	3.42931	56.8824
7.11111	1.83413	3.42931	56.704
7.21212	1.83413	3.42931	56.521
7.31313	1.83413	3.42931	56.3342
7.41414	1.83413	3.42931	56.1444
7.51515	1.83413	3.42931	55.9521
7.61616	1.83413	3.42931	55.7578
7.71717	1.83413	3.42931	55.5619
7.81818	1.83413	3.42931	55.3648
7.91919	1.83413	3.42931	55.1667
8.0202	1.83413	3.42931	54.9678
8.12121	1.83413	3.42931	54.7682
8.22222	1.83413	3.42931	54.5681
8.32323	1.83413	3.42931	54.3676
8.42424	1.83413	3.42931	54.1668
8.52525	1.83413	3.42931	53.9658
8.62626	1.83413	3.42931	53.7645
8.72727	1.83413	3.42931	53.5631
8.82828	1.83413	3.42931	53.3616
8.92929	1.83413	3.42931	53.1599
9.0303	1.83413	3.42931	52.9582
9.13131	1.83413	3.42931	52.7564
9.23232	1.83413	3.42931	52.5546
9.33333	1.83413	3.42931	52.3527
9.43434	1.83413	3.42931	52.1508
9.53535	1.83413	3.42931	51.9488
9.63636	1.83413	3.42931	51.7468
9.73737	1.83413	3.42931	51.5448
9.83838	1.83413	3.42931	51.3427
9.93939	1.83413	3.42931	51.1407
10.0404	1.83413	3.42931	50.9385
10.1414	1.83413	3.42931	50.7363
10.2424	1.83413	3.42931	50.5341
10.3434	1.83413	3.42931	50.3317
10.4444	1.83413	3.42931	50.1292
10.5455	1.83413	3.42931	49.9266
10.6465	1.83413	3.42931	49.7238
10.7475	1.83413	3.42931	49.5207
10.8485	1.83413	3.42931	49.3172
10.9495	1.83413	3.42931	49.1133
11.0505	1.83413	3.42931	48.9087
11.1515	1.83413	3.42931	48.7033
11.2525	1.83413	3.42931	48.4969
11.3535	1.83413	3.42931	48.2892
11.4545	1.83413	3.42931	48.0798
11.5556	1.83413	3.42931	47.8683
11.6566	1.83413	3.42931	47.6542
11.7576	1.83413	3.42931	47.4369
11.8586	1.83413	3.42931	47.2159
11.9596	1.83413	3.42931	46.9906
12.0606	1.83413	3.42931	46.7602
12.1616	1.83413	3.42931	46.5244
12.2626	1.83413	3.42931	46.2826
12.3636	1.83413	3.42931	46.0345
12.4646	1.83413	3.42931	45.7801
12.5657	1.83413	3.42931	45.5192
12.6667	1.83413	3.42931	45.2522
12.7677	1.83413	3.42931	44.9794
12.8687	1.83413	3.42931	44.7011
12.9697	1.83413	3.42931	44.4177
13.0707	1.83413	3.42931	44.1299
13.1717	1.83413	3.42931	43.8379
13.2727	1.83413	3.42931	43.5422
13.3737	1.83413	3.42931	43.2429
13.4747	1.83413	3.42931	42.9405
13.5758	1.83413	3.42931	42.6348
13.6768	1.83413	3.42931	42.326
13.7778	1.83413	3.42931	42.0139
13.8788	1.83413	3.42931	41.6984
13.9798	1.83413	3.42931	41.3791
14.0808	1.83413	3.42931	41.0556
14.1818	1.83413	3.42931	40.7273
14.2828	1.83413	3.42931	40.3934
14.3838	1.83413	3.42931	40.0531
14.4848	1.83413	3.42931	39.7052
14.5859	1.83413	3.42931	39.3484
14.6869	1.83413	3.42931	38.9808
14.7879	1.83413	3.42931	38.6005
14.8889	1.83413	3.42931	38.205
14.9899	1.83413	3.42931	37.791
15.0909	1.83413	3.42931	37.3547
15.1919	1.83413	3.42931	36.8913
15.2929	1.83413	3.42931	36.395
15.3939	1.83413	3.42931	35.8584
15.4949	1.83413	3.42931	35.2722
15.596	1.83413	3.42931	34.625
15.697	1.83413	3.42931	33.9014
15.798	1.83413	3.42931	33.0782
15.899	1.83413	3.42931	32.0962
16	1.83413	3.42931	-inf
6	1.84027	3.50251	58.169
6.10101	1.84027	3.50251	58.0847
6.20202	1.84027	3.50251	57.9925
6.30303	1.84027	3.50251	57.8901
6.40404	1.84027	3.50251	57.7759
6.50505	1.84027	3.50251	57.6496
6.60606	1.84027	3.50251	57.5115
6.70707	1.84027	3.50251	57.3629
6.80808	1.84027	3.50251	57.2048
6.90909	1.84027	3.50251	57.0386
7.0101	1.84027	3.50251	56.8657
7.11111	1.84027	3.50251	56.6872
7.21212	1.84027	3.50251	56.504
7.31313	1.84027	3.50251	56.3171
7.41414	1.84027	3.50251	56.1272
7.51515	1.84027	3.50251	55.9348
7.61616	1.84027	3.50251	55.7405
7.71717	1.84027	3.50251	55.5446
7.81818	1.84027	3.50251	55.3474
7.91919	1.84027	3.50251	55.1492
8.0202	1.84027	3.50251	54.9503
8.12121	1.84027	3.50251	54.7507
8.22222	1.84027	3.50251	54.5506
8.32323	1.84027	3.50251	54.3501
8.42424	1.84027	3.50251	54.1493
8.52525	1.84027	3.50251	53.9483
8.62626	1.84027	3.50251	53.747
8.72727	1.84027	3.50251	53.5456
8.82828	1.84027	3.50251	53.344
8.92929	1.84027	3.50251	53.1424
9.0303	1.84027	3.50251	52.9407
9.13131	1.84027	3.50251	52.7389
9.23232	1.84027	3.50251	52.537
9.33333	1.84027	3.50251	52.3351
9.43434	1.84027	3.50251	52.1332
9.53535	1.84027	3.50251	51.9312
9.63636	1.84027	3.50251	51.7293
9.73737	1.84027	3.50251	51.5272
9.83838	1.84027	3.50251	51.3252
9.93939	1.84027	3.50251	51.1231
10.0404	1.84027	3.50251	50.9209
10.1414	1.84027	3.50251	50.7187
10.2424	1.84027	3.50251	50.5164
10.3434	1.84027	3.50251	50.314
10.4444	1.84027	3.50251	50.1115
10.5455	1.84027	3.50251	49.9089
10.6465	1.84027	3.50251	49.706
10.7475	1.84027	3.50251	49.5028
10.8485	1.84027	3.50251	49.2992
10.9495	1.84027	3.50251	49.0952
11.0505	1.84027	3.50251	48.8905
11.1515	1.84027	3.50251	48.685
11.2525	1.84027	3.50251	48.4784
11.3535	1.84027	3.50251	48.2705
11.4545	1.84027	3.50251	48.0609
11.5556	1.84027	3.50251	47.8491
11.6566	1.84027	3.50251	47.6347
11.7576	1.84027	3.50251	47.4171
11.8586	1.84027	3.50251	47.1958
11.9596	1.84027	3.50251	46.9701
12.0606	1.84027	3.50251	46.7394
12.1616	1.84027	3.50251	46.5032
12.2626	1.84027	3.50251	46.2611
12.3636	1.84027	3.50251	46.0127
12.4646	1.84027	3.50251	45.7579
12.5657	1.84027	3.50251	45.4968
12.6667	1.84027	3.50251	45.2295
12.7677	1.84027	3.50251	44.9564
12.8687	1.84027	3.50251	44.6779
12.9697	1.84027	3.50251	44.3945
13.0707	1.84027	3.50251	44.1065
13.1717	1.84027	3.50251	43.8144
13.2727	1.84027	3.50251	43.5185
13.3737	1.84027	3.50251	43.2192
13.4747	1.84027	3.50251	42.9167
13.5758	1.84027	3.50251	42.611
13.6768	1.84027	3.50251	42.3021
13.7778	1.84027	3.50251	41.9901
13.8788	1.84027	3.50251	41.6745
13.9798	1.84027	3.50251	41.3552
14.0808	1.84027	3.50251	41.0316
14.1818	1.84027	3.50251	40.7033
14.2828	1.84027	3.50251	40.3694
14.3838	1.84027	3.50251	40.0291
14.4848	1.84027	3.50251	39.6812
14.5859	1.84027	3.50251	39.3244
14.6869	1.84027	3.50251	38.9568
14.7879	1.84027	3.50251	38.5766
14.8889	1.84027	3.50251	38.181
14.9899	1.84027	3.50251	37.767
15.0909	1.84027	3.50251	37.3307
15.1919	1.84027	3.50251	36.8673
15.2929	1.84027	3.50251	36.371
15.3939	1.84027	3.50251	35.8344
15.4949	1.84027	3.50251	35.2483
15.596	1.84027	3.50251	34.601
15.697	1.84027	3.50251	33.8774
15.798	1.84027	3.50251	33.0542
15.899	1.84027	3.50251	32.0722
16	1.84027	3.50251	-inf
6	1.84641	3.58336	58.163
6.10101	1.84641	3.58336	58.0772
6.20202	1.84641	3.58336	57.9837
6.30303	1.84641	3.58336	57.8801
6.40404	1.84641	3.58336	57.7651
6.50505	1.84641	3.58336	57.638
6.60606	1.84641	3.58336	57.4994
6.70707	1.84641	3.58336	57.3503
6.80808	1.84641	3.58336	57.1919
6.90909	1.84641	3.58336	57.0255
7.0101	1.84641	3.58336	56.8523
7.11111	1.84641	3.58336	56.6736
7.21212	1.84641	3.58336	56.4903
7.31313	1.84641	3.58336	56.3033
7.41414	1.84641	3.58336	56.1133
7.51515	1.84641	3.58336	55.9209
7.61616	1.84641	3.58336	55.7265
7.71717	1.84641	3.58336	55.5306
7.81818	1.84641	3.58336	55.3334
7.91919	1.84641	3.58336	55.1352
8.0202	1.84641	3.58336	54.9362
8.12121	1.84641	3.58336	54.7366
8.22222	1.84641	3.58336	54.5365
8.32323	1.84641	3.58336	54.336
8.42424	1.84641	3.58336	54.1352
8.52525	1.84641	3.58336	53.9341
8.62626	1.84641	3.58336	53.7329
8.72727	1.84641	3.58336	53.5314
8.82828	1.84641	3.58336	53.3299
8.92929	1.84641	3.58336	53.1282
9.0303	1.84641	3.58336	52.9265
9.13131	1.84641	3.58336	52.7247
9.23232	1.84641	3.58336	52.5229
9.33333	1.84641	3.58336	52.321
9.43434	1.84641	3.58336	52.119
9.53535	1.84641	3.58336	51.9171
9.63636	1.84641	3.58336	51.7151
9.73737	1.84641	3.58336	51.513
9.83838	1.84641	3.58336	51.311
9.93939	1.84641	3.58336	51.1089
10.0404	1.84641	3.58336	50.9067
10.1414	1.84641	3.58336	50.7045
10.2424	1.84641	3.58336	50.5022
10.3434	1.84641	3.58336	50.2998
10.4444	1.84641	3.58336	50.0972
10.5455	1.84641	3.58336	49.8945
10.6465	1.84641	3.58336	49.6916
10.7475	1.84641	3.58336	49.4883
10.8485	1.84641	3.58336	49.2847
10.9495	1.84641	3.58336	49.0806
11.0505	1.84641	3.58336	48.8758
11.1515	1.84641	3.58336	48.6701
11.2525	1.84641	3.58336	48.4634
11.3535	1.84641	3.58336	48.2553
11.4545	1.84641	3.58336	48.0454
11.5556	1.84641	3.58336	47.8334
11.6566	1.84641	3.58336	47.6188
11.7576	1.84641	3.58336	47.4009
11.8586	1.84641	3.58336	47.1793
11.9596	1.84641	3.58336	46.9532
12.0606	1.84641	3.58336	46.7222
12.1616	1.84641	3.58336	46.4857
12.2626	1.84641	3.58336	46.2432
12.3636	1.84641	3.58336	45.9944
12.4646	1.84641	3.58336	45.7394
12.5657	1.84641	3.58336	45.478
12.6667	1.84641	3.58336	45.2105
12.7677	1.84641	3.58336	44.9372
12.8687	1.84641	3.58336	44.6585
12.9697	1.84641	3.58336	44.3748
13.0707	1.84641	3.58336	44.0867
13.1717	1.84641	3.58336	43.7945
13.2727	1.84641	3.58336	43.4985
13.3737	1.84641	3.58336	43.1992
13.4747	1.84641	3.58336	42.8966
13.5758	1.84641	3.58336	42.5908
13.6768	1.84641	3.58336	42.2819
13.7778	1.84641	3.58336	41.9698
13.8788	1.84641	3.58336	41.6542
13.9798	1.84641	3.58336	41.3349
14.0808	1.84641	3.58336	41.0113
14.1818	1.84641	3.58336	40.683
14.2828	1.84641	3.58336	40.3491
14.3838	1.84641	3.58336	40.0088
14.4848	1.84641	3.58336	39.6609
14.5859	1.84641	3.58336	39.304
14.6869	1.84641	3.58336	38.9365
14.7879	1.84641	3.58336	38.5562
14.8889	1.84641	3.58336	38.1606
14.9899	1.84641	3.58336	37.7466
15.0909	1.84641	3.58336	37.3103
15.1919	1.84641	3.58336	36.847
15.2929	1.84641	3.58336	36.3506
15.3939	1.84641	3.58336	35.814
15.4949	1.84641	3.58336	35.2279
15.596	1.84641	3.58336	34.5806
15.697	1.84641	3.58336	33.857
15.798	1.84641	3.58336	33.0339
15.899	1.84641	3.58336	32.0519
16	1.84641	3.58336	-inf
6	1.85256	3.66144	58.1555
6.10101	1.85256	3.66144	58.0683
6.20202	1.85256	3.66144	57.9736
6.30303	1.85256	3.66144	57.869
6.40404	1.85256	3.66144	57.7531
6.50505	1.85256	3.66144	57.6254
6.60606	1.85256	3.66144	57.4863
6.70707	1.85256	3.66144	57.3367
6.80808	1.85256	3.66144	57.178
6.90909	1.85256	3.66144	57.0113
7.0101	1.85256	3.66144	56.838
7.11111	1.85256	3.66144	56.6591
7.21212	1.85256	3.66144	56.4757
7.31313	1.85256	3.66144	56.2886
7.41414	1.85256	3.66144	56.0985
7.51515	1.85256	3.66144	55.906
7.61616	1.85256	3.66144	55.7116
7.71717	1.85256	3.66144	55.5156
7.81818	1.85256	3.66144	55.3184
7.91919	1.85256	3.66144	55.1202
8.0202	1.85256	3.66144	54.9212
8.12121	1.85256	3.66144	54.7216
8.22222	1.85256	3.66144	54.5215
8.32323	1.85256	3.66144	54.321
8.42424	1.85256	3.66144	54.1201
8.52525	1.85256	3.66144	53.9191
8.62626	1.85256	3.66144	53.7178
8.72727	1.85256	3.66144	53.5164
8.82828	1.85256	3.66144	53.3148
8.92929	1.85256	3.66144	53.1132
9.0303	1.85256	3.66144	52.9114
9.13131	1.85256	3.66144	52.7096
9.23232	1.85256	3.66144	52.5078
9.33333	1.85256	3.66144	52.3059
9.43434	1.85256	3.66144	52.1039
9.53535	1.85256	3.66144	51.902
9.63636	1.85256	3.66144	51.7
9.73737	1.85256	3.66144	51.4979
9.83838	1.85256	3.66144	51.2959
9.93939	1.85256	3.66144	51.0937
10.0404	1.85256	3.66144	50.8916
10.1414	1.85256	3.66144	50.6893
10.2424	1.85256	3.66144	50.487
10.3434	1.85256	3.66144	50.2846
10.4444	1.85256	3.66144	50.082
10.5455	1.85256	3.66144	49.8792
10.6465	1.85256	3.66144	49.6762
10.7475	1.85256	3.66144	49.4729
10.8485	1.85256	3.66144	49.2692
10.9495	1.85256	3.66144	49.065
11.0505	1.85256	3.66144	48.8601
11.1515	1.85256	3.66144	48.6543
11.2525	1.85256	3.66144	48.4475
11.3535	1.85256	3.66144	48.2392
11.4545	1.85256	3.66144	48.0291
11.5556	1.85256	3.66144	47.8169
11.6566	1.85256	3.66144	47.602
11.7576	1.85256	3.66144	47.3839
11.8586	1.85256	3.66144	47.1619
11.9596	1.85256	3.66144	46.9356
12.0606	1.85256	3.66144	46.7042
12.1616	1.85256	3.66144	46.4673
12.2626	1.85256	3.66144	46.2245
12.3636	1.85256	3.66144	45.9755
12.4646	1.85256	3.66144	45.7201
12.5657	1.85256	3.66144	45.4585
12.6667	1.85256	3.66144	45.1907
12.7677	1.85256	3.66144	44.9172
12.8687	1.85256	3.66144	44.6383
12.9697	1.85256	3.66144	44.3545
13.0707	1.85256	3.66144	44.0663
13.1717	1.85256	3.66144	43.774
13.2727	1.85256	3.66144	43.4779
13.3737	1.85256	3.66144	43.1785
13.4747	1.85256	3.66144	42.8758
13.5758	1.85256	3.66144	42.57
13.6768	1.85256	3.66144	42.2611
13.7778	1.85256	3.66144	41.9489
13.8788	1.85256	3.66144	41.6333
13.9798	1.85256	3.66144	41.314
14.0808	1.85256	3.66144	40.9904
14.1818	1.85256	3.66144	40.662
14.2828	1.85256	3.66144	40.3282
14.3838	1.85256	3.66144	39.9878
14.4848	1.85256	3.66144	39.6399
14.5859	1.85256	3.66144	39.283
14.6869	1.85256	3.66144	38.9155
14.7879	1.85256	3.66144	38.5352
14.8889	1.85256	3.66144	38.1396
14.9899	1.85256	3.66144	37.7256
15.0909	1.85256	3.66144	37.2893
15.1919	1.85256	3.66144	36.826
15.2929	1.85256	3.66144	36.3297
15.3939	1.85256	3.66144	35.793
15.4949	1.85256	3.66144	35.2069
15.596	1.85256	3.66144	34.5596
15.697	1.85256	3.66144	33.836
15.798	1.85256	3.66144	33.0129
15.899	1.85256	3.66144	32.0309
16	1.85256	3.66144	-inf
6	1.8587	3.72616	58.1428
6.10101	1.8587	3.72616	58.0541
6.20202	1.8587	3.72616	57.9582
6.30303	1.8587	3.72616	57.8526
6.40404	1.8587	3.72616	57.7358
6.50505	1.8587	3.72616	57.6075
6.60606	1.8587	3.72616	57.4678
6.70707	1.8587	3.72616	57.3179
6.80808	1.8587	3.72616	57.1588
6.90909	1.8587	3.72616	56.9919
7.0101	1.8587	3.72616	56.8183
7.11111	1.8587	3.72616	56.6393
7.21212	1.8587	3.72616	56.4558
7.31313	1.8587	3.72616	56.2686
7.41414	1.8587	3.72616	56.0784
7.51515	1.8587	3.72616	55.8859
7.61616	1.8587	3.72616	55.6914
7.71717	1.8587	3.72616	55.4954
7.81818	1.8587	3.72616	55.2981
7.91919	1.8587	3.72616	55.0999
8.0202	1.8587	3.72616	54.9009
8.12121	1.8587	3.72616	54.7013
8.22222	1.8587	3.72616	54.5011
8.32323	1.8587	3.72616	54.3006
8.42424	1.8587	3.72616	54.0998
8.52525	1.8587	3.72616	53.8987
8.62626	1.8587	3.72616	53.6974
8.72727	1.8587	3.72616	53.496
8.82828	1.8587	3.72616	53.2945
8.92929	1.8587	3.72616	53.0928
9.0303	1.8587	3.72616	52.8911
9.13131	1.8587	3.72616	52.6893
9.23232	1.8587	3.72616	52.4874
9.33333	1.8587	3.72616	52.2855
9.43434	1.8587	3.72616	52.0836
9.53535	1.8587	3.72616	51.8816
9.63636	1.8587	3.72616	51.6796
9.73737	1.8587	3.72616	51.4775
9.83838	1.8587	3.72616	51.2754
9.93939	1.8587	3.72616	51.0733
10.0404	1.8587	3.72616	50.8711
10.1414	1.8587	3.72616	50.6689
10.2424	1.8587	3.72616	50.4665
10.3434	1.8587	3.72616	50.2641
10.4444	1.8587	3.72616	50.0615
10.5455	1.8587	3.72616	49.8587
10.6465	1.8587	3.72616	49.6556
10.7475	1.8587	3.72616	49.4523
10.8485	1.8587	3.72616	49.2485
10.9495	1.8587	3.72616	49.0442
11.0505	1.8587	3.72616	48.8392
11.1515	1.8587	3.72616	48.6333
11.2525	1.8587	3.72616	48.4263
11.3535	1.8587	3.72616	48.2178
11.4545	1.8587	3.72616	48.0076
11.5556	1.8587	3.72616	47.7951
11.6566	1.8587	3.72616	47.58
11.7576	1.8587	3.72616	47.3616
11.8586	1.8587	3.72616	47.1393
11.9596	1.8587	3.72616	46.9127
12.0606	1.8587	3.72616	46.6811
12.1616	1.8587	3.72616	46.4439
12.2626	1.8587	3.72616	46.2008
12.3636	1.8587	3.72616	45.9515
12.4646	1.8587	3.72616	45.6959
12.5657	1.8587	3.72616	45.434
12.6667	1.8587	3.72616	45.1661
12.7677	1.8587	3.72616	44.8924
12.8687	1.8587	3.72616	44.6133
12.9697	1.8587	3.72616	44.3294
13.0707	1.8587	3.72616	44.041
13.1717	1.8587	3.72616	43.7486
13.2727	1.8587	3.72616	43.4525
13.3737	1.8587	3.72616	43.153
13.4747	1.8587	3.72616	42.8503
13.5758	1.8587	3.72616	42.5444
13.6768	1.8587	3.72616	42.2355
13.7778	1.8587	3.72616	41.9233
13.8788	1.8587	3.72616	41.6077
13.9798	1.8587	3.72616	41.2883
14.0808	1.8587	3.72616	40.9647
14.1818	1.8587	3.72616	40.6363
14.2828	1.8587	3.72616	40.3024
14.3838	1.8587	3.72616	39.9621
14.4848	1.8587	3.72616	39.6142
14.5859	1.8587	3.72616	39.2573
14.6869	1.8587	3.72616	38.8898
14.7879	1.8587	3.72616	38.5095
14.8889	1.8587	3.72616	38.1139
14.9899	1.8587	3.72616	37.6999
15.0909	1.8587	3.72616	37.2636
15.1919	1.8587	3.72616	36.8003
15.2929	1.8587	3.72616	36.3039
15.3939	1.8587	3.72616	35.7673
15.4949	1.8587	3.72616	35.1812
15.596	1.8587	3.72616	34.5339
15.697	1.8587	3.72616	33.8103
15.798	1.8587	3.72616	32.9872
15.899	1.8587	3.72616	32.0051
16	1.8587	3.72616	-inf
6	1.86484	3.81011	58.1364
6.10101	1.86484	3.81011	58.0467
6.20202	1.86484	3.81011	57.9498
6.30303	1.86484	3.81011	57.8434
6.40404	1.86484	3.81011	57.7259
6.50505	1.86484	3.81011	57.597
6.60606	1.86484	3.81011	57.457
6.70707	1.86484	3.81011	57.3067
6.80808	1.86484	3.81011	57.1474
6.90909	1.86484	3.81011	56.9802
7.0101	1.86484	3.81011	56.8065
7.11111	1.86484	3.81011	56.6274
7.21212	1.86484	3.81011	56.4438
7.31313	1.86484	3.81011	56.2565
7.41414	1.86484	3.81011	56.0663
7.51515	1.86484	3.81011	55.8737
7.61616	1.86484	3.81011	55.6792
7.71717	1.86484	3.81011	55.4831
7.81818	1.86484	3.81011	55.2859
7.91919	1.86484	3.81011	55.0876
8.0202	1.86484	3.81011	54.8886
8.12121	1.86484	3.81011	54.6889
8.22222	1.86484	3.81011	54.4888
8.32323	1.86484	3.81011	54.2883
8.42424	1.86484	3.81011	54.0874
8.52525	1.86484	3.81011	53.8864
8.62626	1.86484	3.81011	53.6851
8.72727	1.86484	3.81011	53.4837
8.82828	1.86484	3.81011	53.2821
8.92929	1.86484	3.81011	53.0804
9.0303	1.86484	3.81011	52.8787
9.13131	1.86484	3.81011	52.6769
9.23232	1.86484	3.81011	52.475
9.33333	1.86484	3.81011	52.2731
9.43434	1.86484	3.81011	52.0712
9.53535	1.86484	3.81011	51.8692
9.63636	1.86484	3.81011	51.6672
9.73737	1.86484	3.81011	51.4651
9.83838	1.86484	3.81011	51.263
9.93939	1.86484	3.81011	51.0609
10.0404	1.86484	3.81011	50.8587
10.1414	1.86484	3.81011	50.6564
10.2424	1.86484	3.81011	50.4541
10.3434	1.86484	3.81011	50.2516
10.4444	1.86484	3.81011	50.0489
10.5455	1.86484	3.81011	49.8461
10.6465	1.86484	3.81011	49.643
10.7475	1.86484	3.81011	49.4396
10.8485	1.86484	3.81011	49.2358
10.9495	1.86484	3.81011	49.0314
11.0505	1.86484	3.81011	48.8263
11.1515	1.86484	3.81011	48.6203
11.2525	1.86484	3.81011	48.4131
11.3535	1.86484	3.81011	48.2045
11.4545	1.86484	3.81011	47.9941
11.5556	1.86484	3.81011	47.7814
11.6566	1.86484	3.81011	47.5661
11.7576	1.86484	3.81011	47.3474
11.8586	1.86484	3.81011	47.1249
11.9596	1.86484	3.81011	46.898
12.0606	1.86484	3.81011	46.6661
12.1616	1.86484	3.81011	46.4286
12.2626	1.86484	3.81011	46.1852
12.3636	1.86484	3.81011	45.9356
12.4646	1.86484	3.81011	45.6797
12.5657	1.86484	3.81011	45.4176
12.6667	1.86484	3.81011	45.1494
12.7677	1.86484	3.81011	44.8755
12.8687	1.86484	3.81011	44.5963
12.9697	1.86484	3.81011	44.3122
13.0707	1.86484	3.81011	44.0237
13.1717	1.86484	3.81011	43.7312
13.2727	1.86484	3.81011	43.435
13.3737	1.86484	3.81011	43.1354
13.4747	1.86484	3.81011	42.8326
13.5758	1.86484	3.81011	42.5267
13.6768	1.86484	3.81011	42.2177
13.7778	1.86484	3.81011	41.9055
13.8788	1.86484	3.81011	41.5898
13.9798	1.86484	3.81011	41.2704
14.0808	1.86484	3.81011	40.9468
14.1818	1.86484	3.81011	40.6185
14.2828	1.86484	3.81011	40.2846
14.3838	1.86484	3.81011	39.9442
14.4848	1.86484	3.81011	39.5963
14.5859	1.86484	3.81011	39.2394
14.6869	1.86484	3.81011	38.8719
14.7879	1.86484	3.81011	38.4916
14.8889	1.86484	3.81011	38.096
14.9899	1.86484	3.81011	37.682
15.0909	1.86484	3.81011	37.2457
15.1919	1.86484	3.81011	36.7823
15.2929	1.86484	3.81011	36.286
15.3939	1.86484	3.81011	35.7494
15.4949	1.86484	3.81011	35.1633
15.596	1.86484	3.81011	34.516
15.697	1.86484	3.81011	33.7924
15.798	1.86484	3.81011	32.9692
15.899	1.86484	3.81011	31.9872
16	1.86484	3.81011	-inf
6	1.87099	3.88105	58.125
6.10101	1.87099	3.88105	58.0341
6.20202	1.87099	3.88105	57.9362
6.30303	1.87099	3.88105	57.829
6.40404	1.87099	3.88105	57.7109
6.50505	1.87099	3.88105	57.5815
6.60606	1.87099	3.88105	57.441
6.70707	1.87099	3.88105	57.2904
6.80808	1.87099	3.88105	57.1308
6.90909	1.87099	3.88105	56.9634
7.0101	1.87099	3.88105	56.7896
7.11111	1.87099	3.88105	56.6103
7.21212	1.87099	3.88105	56.4266
7.31313	1.87099	3.88105	56.2392
7.41414	1.87099	3.88105	56.049
7.51515	1.87099	3.88105	55.8563
7.61616	1.87099	3.88105	55.6618
7.71717	1.87099	3.88105	55.4657
7.81818	1.87099	3.88105	55.2684
7.91919	1.87099	3.88105	55.0701
8.0202	1.87099	3.88105	54.8711
8.12121	1.87099	3.88105	54.6714
8.22222	1.87099	3.88105	54.4713
8.32323	1.87099	3.88105	54.2707
8.42424	1.87099	3.88105	54.0699
8.52525	1.87099	3.88105	53.8688
8.62626	1.87099	3.88105	53.6675
8.72727	1.87099	3.88105	53.4661
8.82828	1.87099	3.88105	53.2645
8.92929	1.87099	3.88105	53.0629
9.0303	1.87099	3.88105	52.8611
9.13131	1.87099	3.88105	52.6593
9.23232	1.87099	3.88105	52.4575
9.33333	1.87099	3.88105	52.2556
9.43434	1.87099	3.88105	52.0536
9.53535	1.87099	3.88105	51.8516
9.63636	1.87099	3.88105	51.6496
9.73737	1.87099	3.88105	51.4475
9.83838	1.87099	3.88105	51.2454
9.93939	1.87099	3.88105	51.0433
10.0404	1.87099	3.88105	50.8411
10.1414	1.87099	3.88105	50.6388
10.2424	1.87099	3.88105	50.4364
10.3434	1.87099	3.88105	50.2339
10.4444	1.87099	3.88105	50.0312
10.5455	1.87099	3.88105	49.8284
10.6465	1.87099	3.88105	49.6252
10.7475	1.87099	3.88105	49.4218
10.8485	1.87099	3.88105	49.2179
10.9495	1.87099	3.88105	49.0134
11.0505	1.87099	3.88105	48.8082
11.1515	1.87099	3.88105	48.6021
11.2525	1.87099	3.88105	48.3948
11.3535	1.87099	3.88105	48.186
11.4545	1.87099	3.88105	47.9754
11.5556	1.87099	3.88105	47.7626
11.6566	1.87099	3.88105	47.547
11.7576	1.87099	3.88105	47.3281
11.8586	1.87099	3.88105	47.1054
11.9596	1.87099	3.88105	46.8782
12.0606	1.87099	3.88105	46.646
12.1616	1.87099	3.88105	46.4082
12.2626	1.87099	3.88105	46.1646
12.3636	1.87099	3.88105	45.9147
12.4646	1.87099	3.88105	45.6586
12.5657	1.87099	3.88105	45.3962
12.6667	1.87099	3.88105	45.1278
12.7677	1.87099	3.88105	44.8537
12.8687	1.87099	3.88105	44.5744
12.9697	1.87099	3.88105	44.2902
13.0707	1.87099	3.88105	44.0015
13.1717	1.87099	3.88105	43.7089
13.2727	1.87099	3.88105	43.4126
13.3737	1.87099	3.88105	43.113
13.4747	1.87099	3.88105	42.8102
13.5758	1.87099	3.88105	42.5042
13.6768	1.87099	3.88105	42.1952
13.7778	1.87099	3.88105	41.883
13.8788	1.87099	3.88105	41.5673
13.9798	1.87099	3.88105	41.2479
14.0808	1.87099	3.88105	40.9243
14.1818	1.87099	3.88105	40.5959
14.2828	1.87099	3.88105	40.262
14.3838	1.87099	3.88105	39.9216
14.4848	1.87099	3.88105	39.5737
14.5859	1.87099	3.88105	39.2168
14.6869	1.87099	3.88105	38.8492
14.7879	1.87099	3.88105	38.469
14.8889	1.87099	3.88105	38.0734
14.9899	1.87099	3.88105	37.6594
15.0909	1.87099	3.88105	37.2231
15.1919	1.87099	3.88105	36.7597
15.2929	1.87099	3.88105	36.2634
15.3939	1.87099	3.88105	35.7267
15.4949	1.87099	3.88105	35.1406
15.596	1.87099	3.88105	34.4934
15.697	1.87099	3.88105	33.7697
15.798	1.87099	3.88105	32.9466
15.899	1.87099	3.88105	31.9646
16	1.87099	3.88105	-inf
6	1.87713	3.94994	58.1123
6.10101	1.87713	3.94994	58.0205
6.20202	1.87713	3.94994	57.9217
6.30303	1.87713	3.94994	57.8137
6.40404	1.87713	3.94994	57.695
6.50505	1.87713	3.94994	57.565
6.60606	1.87713	3.94994	57.4241
6.70707	1.87713	3.94994	57.2732
6.80808	1.87713	3.94994	57.1133
6.90909	1.87713	3.94994	56.9458
7.0101	1.87713	3.94994	56.7718
7.11111	1.87713	3.94994	56.5924
7.21212	1.87713	3.94994	56.4086
7.31313	1.87713	3.94994	56.2212
7.41414	1.87713	3.94994	56.0309
7.51515	1.87713	3.94994	55.8382
7.61616	1.87713	3.94994	55.6436
7.71717	1.87713	3.94994	55.4475
7.81818	1.87713	3.94994	55.2502
7.91919	1.87713	3.94994	55.0519
8.0202	1.87713	3.94994	54.8528
8.12121	1.87713	3.94994	54.6532
8.22222	1.87713	3.94994	54.453
8.32323	1.87713	3.94994	54.2525
8.42424	1.87713	3.94994	54.0516
8.52525	1.87713	3.94994	53.8505
8.62626	1.87713	3.94994	53.6492
8.72727	1.87713	3.94994	53.4478
8.82828	1.87713	3.94994	53.2462
8.92929	1.87713	3.94994	53.0446
9.0303	1.87713	3.94994	52.8428
9.13131	1.87713	3.94994	52.641
9.23232	1.87713	3.94994	52.4392
9.33333	1.87713	3.94994	52.2372
9.43434	1.87713	3.94994	52.0353
9.53535	1.87713	3.94994	51.8333
9.63636	1.87713	3.94994	51.6313
9.73737	1.87713	3.94994	51.4292
9.83838	1.87713	3.94994	51.2271
9.93939	1.87713	3.94994	51.0249
10.0404	1.87713	3.94994	50.8227
10.1414	1.87713	3.94994	50.6204
10.2424	1.87713	3.94994	50.418
10.3434	1.87713	3.94994	50.2155
10.4444	1.87713	3.94994	50.0128
10.5455	1.87713	3.94994	49.8099
10.6465	1.87713	3.94994	49.6067
10.7475	1.87713	3.94994	49.4032
10.8485	1.87713	3.94994	49.1992
10.9495	1.87713	3.94994	48.9947
11.0505	1.87713	3.94994	48.7894
11.1515	1.87713	3.94994	48.5832
11.2525	1.87713	3.94994	48.3757
11.3535	1.87713	3.94994	48.1668
11.4545	1.87713	3.94994	47.9561
11.5556	1.87713	3.94994	47.743
11.6566	1.87713	3.94994	47.5272
11.7576	1.87713	3.94994	47.3081
11.8586	1.87713	3.94994	47.0852
11.9596	1.87713	3.94994	46.8577
12.0606	1.87713	3.94994	46.6252
12.1616	1.87713	3.94994	46.3872
12.2626	1.87713	3.94994	46.1433
12.3636	1.87713	3.94994	45.8932
12.4646	1.87713	3.94994	45.6368
12.5657	1.87713	3.94994	45.3743
12.6667	1.87713	3.94994	45.1057
12.7677	1.87713	3.94994	44.8314
12.8687	1.87713	3.94994	44.5519
12.9697	1.87713	3.94994	44.2676
13.0707	1.87713	3.94994	43.9788
13.1717	1.87713	3.94994	43.6861
13.2727	1.87713	3.94994	43.3898
13.3737	1.87713	3.94994	43.0901
13.4747	1.87713	3.94994	42.7872
13.5758	1.87713	3.94994	42.4812
13.6768	1.87713	3.94994	42.1722
13.7778	1.87713	3.94994	41.8599
13.8788	1.87713	3.94994	41.5442
13.9798	1.87713	3.94994	41.2248
14.0808	1.87713	3.94994	40.9011
14.1818	1.87713	3.94994	40.5727
14.2828	1.87713	3.94994	40.2388
14.3838	1.87713	3.94994	39.8985
14.4848	1.87713	3.94994	39.5505
14.5859	1.87713	3.94994	39.1936
14.6869	1.87713	3.94994	38.8261
14.7879	1.87713	3.94994	38.4458
14.8889	1.87713	3.94994	38.0502
14.9899	1.87713	3.94994	37.6362
15.0909	1.87713	3.94994	37.1999
15.1919	1.87713	3.94994	36.7365
15.2929	1.87713	3.94994	36.2402
15.3939	1.87713	3.94994	35.7036
15.4949	1.87713	3.94994	35.1174
15.596	1.87713	3.94994	34.4702
15.697	1.87713	3.94994	33.7466
15.798	1.87713	3.94994	32.9234
15.899	1.87713	3.94994	31.9414
16	1.87713	3.94994	-inf
6	1.88327	4.02788	58.1027
6.10101	1.88327	4.02788	58.0099
6.20202	1.88327	4.02788	57.9103
6.30303	1.88327	4.02788	57.8017
6.40404	1.88327	4.02788	57.6824
6.50505	1.88327	4.02788	57.552
6.60606	1.88327	4.02788	57.4108
6.70707	1.88327	4.02788	57.2596
6.80808	1.88327	4.02788	57.0995
6.90909	1.88327	4.02788	56.9318
7.0101	1.88327	4.02788	56.7577
7.11111	1.88327	4.02788	56.5782
7.21212	1.88327	4.02788	56.3943
7.31313	1.88327	4.02788	56.2069
7.41414	1.88327	4.02788	56.0165
7.51515	1.88327	4.02788	55.8237
7.61616	1.88327	4.02788	55.6291
7.71717	1.88327	4.02788	55.433
7.81818	1.88327	4.02788	55.2356
7.91919	1.88327	4.02788	55.0373
8.0202	1.88327	4.02788	54.8383
8.12121	1.88327	4.02788	54.6386
8.22222	1.88327	4.02788	54.4384
8.32323	1.88327	4.02788	54.2379
8.42424	1.88327	4.02788	54.037
8.52525	1.88327	4.02788	53.8359
8.62626	1.88327	4.02788	53.6347
8.72727	1.88327	4.02788	53.4332
8.82828	1.88327	4.02788	53.2316
8.92929	1.88327	4.02788	53.03
9.0303	1.88327	4.02788	52.8282
9.13131	1.88327	4.02788	52.6264
9.23232	1.88327	4.02788	52.4246
9.33333	1.88327	4.02788	52.2226
9.43434	1.88327	4.02788	52.0207
9.53535	1.88327	4.02788	51.8187
9.63636	1.88327	4.02788	51.6167
9.73737	1.88327	4.02788	51.4146
9.83838	1.88327	4.02788	51.2125
9.93939	1.88327	4.02788	51.0103
10.0404	1.88327	4.02788	50.8081
10.1414	1.88327	4.02788	50.6057
10.2424	1.88327	4.02788	50.4033
10.3434	1.88327	4.02788	50.2008
10.4444	1.88327	4.02788	49.998
10.5455	1.88327	4.02788	49.7951
10.6465	1.88327	4.02788	49.5919
10.7475	1.88327	4.02788	49.3883
10.8485	1.88327	4.02788	49.1843
10.9495	1.88327	4.02788	48.9797
11.0505	1.88327	4.02788	48.7743
11.1515	1.88327	4.02788	48.568
11.2525	1.88327	4.02788	48.3605
11.3535	1.88327	4.02788	48.1514
11.4545	1.88327	4.02788	47.9405
11.5556	1.88327	4.02788	47.7273
11.6566	1.88327	4.02788	47.5113
11.7576	1.88327	4.02788	47.292
11.8586	1.88327	4.02788	47.0687
11.9596	1.88327	4.02788	46.841
12.0606	1.88327	4.02788	46.6083
12.1616	1.88327	4.02788	46.37
12.2626	1.88327	4.02788	46.1259
12.3636	1.88327	4.02788	45.8755
12.4646	1.88327	4.02788	45.6189
12.5657	1.88327	4.02788	45.3561
12.6667	1.88327	4.02788	45.0873
12.7677	1.88327	4.02788	44.8128
12.8687	1.88327	4.02788	44.5332
12.9697	1.88327	4.02788	44.2487
13.0707	1.88327	4.02788	43.9598
13.1717	1.88327	4.02788	43.667
13.2727	1.88327	4.02788	43.3706
13.3737	1.88327	4.02788	43.0708
13.4747	1.88327	4.02788	42.7679
13.5758	1.88327	4.02788	42.4619
13.6768	1.88327	4.02788	42.1528
13.7778	1.88327	4.02788	41.8405
13.8788	1.88327	4.02788	41.5248
13.9798	1.88327	4.02788	41.2053
14.0808	1.88327	4.02788	40.8817
14.1818	1.88327	4.02788	40.5533
14.2828	1.88327	4.02788	40.2193
14.3838	1.88327	4.02788	39.879
14.4848	1.88327	4.02788	39.531
14.5859	1.88327	4.02788	39.1741
14.6869	1.88327	4.02788	38.8066
14.7879	1.88327	4.02788	38.4263
14.8889	1.88327	4.02788	38.0307
14.9899	1.88327	4.02788	37.6167
15.0909	1.88327	4.02788	37.1804
15.1919	1.88327	4.02788	36.717
15.2929	1.88327	4.02788	36.2207
15.3939	1.88327	4.02788	35.6841
15.4949	1.88327	4.02788	35.0979
15.596	1.88327	4.02788	34.4507
15.697	1.88327	4.02788	33.727
15.798	1.88327	4.02788	32.9039
15.899	1.88327	4.02788	31.9219
16	1.88327	4.02788	-inf
6	1.88942	4.09313	58.0879
6.10101	1.88942	4.09313	57.9943
6.20202	1.88942	4.09313	57.8939
6.30303	1.88942	4.09313	57.7846
6.40404	1.88942	4.09313	57.6648
6.50505	1.88942	4.09313	57.534
6.60606	1.88942	4.09313	57.3924
6.70707	1.88942	4.09313	57.2409
6.80808	1.88942	4.09313	57.0806
6.90909	1.88942	4.09313	56.9127
7.0101	1.88942	4.09313	56.7385
7.11111	1.88942	4.09313	56.5589
7.21212	1.88942	4.09313	56.3749
7.31313	1.88942	4.09313	56.1874
7.41414	1.88942	4.09313	55.9969
7.51515	1.88942	4.09313	55.8041
7.61616	1.88942	4.09313	55.6095
7.71717	1.88942	4.09313	55.4133
7.81818	1.88942	4.09313	55.216
7.91919	1.88942	4.09313	55.0177
8.0202	1.88942	4.09313	54.8186
8.12121	1.88942	4.09313	54.6189
8.22222	1.88942	4.09313	54.4187
8.32323	1.88942	4.09313	54.2182
8.42424	1.88942	4.09313	54.0173
8.52525	1.88942	4.09313	53.8162
8.62626	1.88942	4.09313	53.6149
8.72727	1.88942	4.09313	53.4135
8.82828	1.88942	4.09313	53.2119
8.92929	1.88942	4.09313	53.0103
9.0303	1.88942	4.09313	52.8085
9.13131	1.88942	4.09313	52.6067
9.23232	1.88942	4.09313	52.4048
9.33333	1.88942	4.09313	52.2029
9.43434	1.88942	4.09313	52.0009
9.53535	1.88942	4.09313	51.799
9.63636	1.88942	4.09313	51.5969
9.73737	1.88942	4.09313	51.3948
9.83838	1.88942	4.09313	51.1927
9.93939	1.88942	4.09313	50.9905
10.0404	1.88942	4.09313	50.7883
10.1414	1.88942	4.09313	50.5859
10.2424	1.88942	4.09313	50.3835
10.3434	1.88942	4.09313	50.1809
10.4444	1.88942	4.09313	49.9782
10.5455	1.88942	4.09313	49.7752
10.6465	1.88942	4.09313	49.572
10.7475	1.88942	4.09313	49.3683
10.8485	1.88942	4.09313	49.1642
10.9495	1.88942	4.09313	48.9596
11.0505	1.88942	4.09313	48.7541
11.1515	1.88942	4.09313	48.5477
11.2525	1.88942	4.09313	48.34
11.3535	1.88942	4.09313	48.1309
11.4545	1.88942	4.09313	47.9198
11.5556	1.88942	4.09313	47.7064
11.6566	1.88942	4.09313	47.4902
11.7576	1.88942	4.09313	47.2707
11.8586	1.88942	4.09313	47.0473
11.9596	1.88942	4.09313	46.8193
12.0606	1.88942	4.09313	46.5863
12.1616	1.88942	4.09313	46.3478
12.2626	1.88942	4.09313	46.1034
12.3636	1.88942	4.09313	45.8528
12.4646	1.88942	4.09313	45.596
12.5657	1.88942	4.09313	45.333
12.6667	1.88942	4.09313	45.064
12.7677	1.88942	4.09313	44.7894
12.8687	1.88942	4.09313	44.5096
12.9697	1.88942	4.09313	44.225
13.0707	1.88942	4.09313	43.9361
13.1717	1.88942	4.09313	43.6432
13.2727	1.88942	4.09313	43.3467
13.3737	1.88942	4.09313	43.0469
13.4747	1.88942	4.09313	42.7439
13.5758	1.88942	4.09313	42.4378
13.6768	1.88942	4.09313	42.1287
13.7778	1.88942	4.09313	41.8164
13.8788	1.88942	4.09313	41.5006
13.9798	1.88942	4.09313	41.1812
14.0808	1.88942	4.09313	40.8575
14.1818	1.88942	4.09313	40.5291
14.2828	1.88942	4.09313	40.1951
14.3838	1.88942	4.09313	39.8548
14.4848	1.88942	4.09313	39.5068
14.5859	1.88942	4.09313	39.1499
14.6869	1.88942	4.09313	38.7824
14.7879	1.88942	4.09313	38.4021
14.8889	1.88942	4.09313	38.0065
14.9899	1.88942	4.09313	37.5925
15.0909	1.88942	4.09313	37.1562
15.1919	1.88942	4.09313	36.6928
15.2929	1.88942	4.09313	36.1965
15.3939	1.88942	4.09313	35.6599
15.4949	1.88942	4.09313	35.0737
15.596	1.88942	4.09313	34.4265
15.697	1.88942	4.09313	33.7028
15.798	1.88942	4.09313	32.8797
15.899	1.88942	4.09313	31.8977
16	1.88942	4.09313	-inf
6	1.89556	4.16773	58.0763
6.10101	1.89556	4.16773	57.9819
6.20202	1.89556	4.16773	57.8809
6.30303	1.89556	4.16773	57.771
6.40404	1.89556	4.16773	57.6507
6.50505	1.89556	4.16773	57.5194
6.60606	1.89556	4.16773	57.3776
6.70707	1.89556	4.16773	57.2258
6.80808	1.89556	4.16773	57.0654
6.90909	1.89556	4.16773	56.8974
7.0101	1.89556	4.16773	56.723
7.11111	1.89556	4.16773	56.5433
7.21212	1.89556	4.16773	56.3592
7.31313	1.89556	4.16773	56.1716
7.41414	1.89556	4.16773	55.9812
7.51515	1.89556	4.16773	55.7883
7.61616	1.89556	4.16773	55.5937
7.71717	1.89556	4.16773	55.3975
7.81818	1.89556	4.16773	55.2001
7.91919	1.89556	4.16773	55.0018
8.0202	1.89556	4.16773	54.8027
8.12121	1.89556	4.16773	54.603
8.22222	1.89556	4.16773	54.4028
8.32323	1.89556	4.16773	54.2023
8.42424	1.89556	4.16773	54.0014
8.52525	1.89556	4.16773	53.8003
8.62626	1.89556	4.16773	53.599
8.72727	1.89556	4.16773	53.3976
8.82828	1.89556	4.16773	53.196
8.92929	1.89556	4.16773	52.9943
9.0303	1.89556	4.16773	52.7926
9.13131	1.89556	4.16773	52.5908
9.23232	1.89556	4.16773	52.3889
9.33333	1.89556	4.16773	52.187
9.43434	1.89556	4.16773	51.985
9.53535	1.89556	4.16773	51.783
9.63636	1.89556	4.16773	51.581
9.73737	1.89556	4.16773	51.3789
9.83838	1.89556	4.16773	51.1767
9.93939	1.89556	4.16773	50.9745
10.0404	1.89556	4.16773	50.7723
10.1414	1.89556	4.16773	50.5699
10.2424	1.89556	4.16773	50.3675
10.3434	1.89556	4.16773	50.1649
10.4444	1.89556	4.16773	49.9621
10.5455	1.89556	4.16773	49.7591
10.6465	1.89556	4.16773	49.5558
10.7475	1.89556	4.16773	49.3522
10.8485	1.89556	4.16773	49.148
10.9495	1.89556	4.16773	48.9433
11.0505	1.89556	4.16773	48.7377
11.1515	1.89556	4.16773	48.5312
11.2525	1.89556	4.16773	48.3234
11.3535	1.89556	4.16773	48.1141
11.4545	1.89556	4.16773	47.9029
11.5556	1.89556	4.16773	47.6894
11.6566	1.89556	4.16773	47.473
11.7576	1.89556	4.16773	47.2533
11.8586	1.89556	4.16773	47.0296
11.9596	1.89556	4.16773	46.8015
12.0606	1.89556	4.16773	46.5682
12.1616	1.89556	4.16773	46.3295
12.2626	1.89556	4.16773	46.0848
12.3636	1.89556	4.16773	45.834
12.4646	1.89556	4.16773	45.5769
12.5657	1.89556	4.16773	45.3137
12.6667	1.89556	4.16773	45.0445
12.7677	1.89556	4.16773	44.7698
12.8687	1.89556	4.16773	44.4898
12.9697	1.89556	4.16773	44.2051
13.0707	1.89556	4.16773	43.916
13.1717	1.89556	4.16773	43.623
13.2727	1.89556	4.16773	43.3265
13.3737	1.89556	4.16773	43.0266
13.4747	1.89556	4.16773	42.7235
13.5758	1.89556	4.16773	42.4174
13.6768	1.89556	4.16773	42.1083
13.7778	1.89556	4.16773	41.7959
13.8788	1.89556	4.16773	41.4802
13.9798	1.89556	4.16773	41.1607
14.0808	1.89556	4.16773	40.837
14.1818	1.89556	4.16773	40.5086
14.2828	1.89556	4.16773	40.1746
14.3838	1.89556	4.16773	39.8343
14.4848	1.89556	4.16773	39.4863
14.5859	1.89556	4.16773	39.1294
14.6869	1.89556	4.16773	38.7618
14.7879	1.89556	4.16773	38.3815
14.8889	1.89556	4.16773	37.986
14.9899	1.89556	4.16773	37.5719
15.0909	1.89556	4.16773	37.1356
15.1919	1.89556	4.16773	36.6723
15.2929	1.89556	4.16773	36.176
15.3939	1.89556	4.16773	35.6393
15.4949	1.89556	4.16773	35.0532
15.596	1.89556	4.16773	34.4059
15.697	1.89556	4.16773	33.6823
15.798	1.89556	4.16773	32.8592
15.899	1.89556	4.16773	31.8772
16	1.89556	4.16773	-inf
6	1.9017	4.24086	58.0638
6.10101	1.9017	4.24086	57.9686
6.20202	1.9017	4.24086	57.867
6.30303	1.9017	4.24086	57.7565
6.40404	1.9017	4.24086	57.6358
6.50505	1.9017	4.24086	57.5042
6.60606	1.9017	4.24086	57.362
6.70707	1.9017	4.24086	57.2101
6.80808	1.9017	4.24086	57.0494
6.90909	1.9017	4.24086	56.8813
7.0101	1.9017	4.24086	56.7068
7.11111	1.9017	4.24086	56.527
7.21212	1.9017	4.24086	56.3429
7.31313	1.9017	4.24086	56.1553
7.41414	1.9017	4.24086	55.9647
7.51515	1.9017	4.24086	55.7719
7.61616	1.9017	4.24086	55.5772
7.71717	1.9017	4.24086	55.381
7.81818	1.9017	4.24086	55.1836
7.91919	1.9017	4.24086	54.9853
8.0202	1.9017	4.24086	54.7862
8.12121	1.9017	4.24086	54.5865
8.22222	1.9017	4.24086	54.3863
8.32323	1.9017	4.24086	54.1857
8.42424	1.9017	4.24086	53.9849
8.52525	1.9017	4.24086	53.7837
8.62626	1.9017	4.24086	53.5824
8.72727	1.9017	4.24086	53.381
8.82828	1.9017	4.24086	53.1794
8.92929	1.9017	4.24086	52.9777
9.0303	1.9017	4.24086	52.776
9.13131	1.9017	4.24086	52.5742
9.23232	1.9017	4.24086	52.3723
9.33333	1.9017	4.24086	52.1704
9.43434	1.9017	4.24086	51.9684
9.53535	1.9017	4.24086	51.7664
9.63636	1.9017	4.24086	51.5644
9.73737	1.9017	4.24086	51.3623
9.83838	1.9017	4.24086	51.1601
9.93939	1.9017	4.24086	50.9579
10.0404	1.9017	4.24086	50.7557
10.1414	1.9017	4.24086	50.5533
10.2424	1.9017	4.24086	50.3508
10.3434	1.9017	4.24086	50.1482
10.4444	1.9017	4.24086	49.9454
10.5455	1.9017	4.24086	49.7424
10.6465	1.9017	4.24086	49.539
10.7475	1.9017	4.24086	49.3353
10.8485	1.9017	4.24086	49.1311
10.9495	1.9017	4.24086	48.9263
11.0505	1.9017	4.24086	48.7207
11.1515	1.9017	4.24086	48.5141
11.2525	1.9017	4.24086	48.3062
11.3535	1.9017	4.24086	48.0968
11.4545	1.9017	4.24086	47.8855
11.5556	1.9017	4.24086	47.6717
11.6566	1.9017	4.24086	47.4552
11.7576	1.9017	4.24086	47.2353
11.8586	1.9017	4.24086	47.0114
11.9596	1.9017	4.24086	46.783
12.0606	1.9017	4.24086	46.5495
12.1616	1.9017	4.24086	46.3106
12.2626	1.9017	4.24086	46.0656
12.3636	1.9017	4.24086	45.8146
12.4646	1.9017	4.24086	45.5573
12.5657	1.9017	4.24086	45.2939
12.6667	1.9017	4.24086	45.0245
12.7677	1.9017	4.24086	44.7496
12.8687	1.9017	4.24086	44.4695
12.9697	1.9017	4.24086	44.1846
13.0707	1.9017	4.24086	43.8954
13.1717	1.9017	4.24086	43.6024
13.2727	1.9017	4.24086	43.3057
13.3737	1.9017	4.24086	43.0058
13.4747	1.9017	4.24086	42.7027
13.5758	1.9017	4.24086	42.3965
13.6768	1.9017	4.24086	42.0873
13.7778	1.9017	4.24086	41.775
13.8788	1.9017	4.24086	41.4592
13.9798	1.9017	4.24086	41.1397
14.0808	1.9017	4.24086	40.816
14.1818	1.9017	4.24086	40.4876
14.2828	1.9017	4.24086	40.1536
14.3838	1.9017	4.24086	39.8132
14.4848	1.9017	4.24086	39.4653
14.5859	1.9017	4.24086	39.1084
14.6869	1.9017	4.24086	38.7408
14.7879	1.9017	4.24086	38.3605
14.8889	1.9017	4.24086	37.9649
14.9899	1.9017	4.24086	37.5509
15.0909	1.9017	4.24086	37.1146
15.1919	1.9017	4.24086	36.6512
15.2929	1.9017	4.24086	36.1549
15.3939	1.9017	4.24086	35.6183
15.4949	1.9017	4.24086	35.0321
15.596	1.9017	4.24086	34.3849
15.697	1.9017	4.24086	33.6612
15.798	1.9017	4.24086	32.8381
15.899	1.9017	4.24086	31.8561
16	1.9017	4.24086	-inf
6	1.90785	4.3126	58.0504
6.10101	1.90785	4.3126	57.9546
6.20202	1.90785	4.3126	57.8523
6.30303	1.90785	4.3126	57.7413
6.40404	1.90785	4.3126	57.6202
6.50505	1.90785	4.3126	57.4883
6.60606	1.90785	4.3126	57.3458
6.70707	1.90785	4.3126	57.1937
6.80808	1.90785	4.3126	57.0328
6.90909	1.90785	4.3126	56.8646
7.0101	1.90785	4.3126	56.69
7.11111	1.90785	4.3126	56.5101
7.21212	1.90785	4.3126	56.326
7.31313	1.90785	4.3126	56.1383
7.41414	1.90785	4.3126	55.9477
7.51515	1.90785	4.3126	55.7548
7.61616	1.90785	4.3126	55.5601
7.71717	1.90785	4.3126	55.3639
7.81818	1.90785	4.3126	55.1665
7.91919	1.90785	4.3126	54.9681
8.0202	1.90785	4.3126	54.769
8.12121	1.90785	4.3126	54.5693
8.22222	1.90785	4.3126	54.3691
8.32323	1.90785	4.3126	54.1685
8.42424	1.90785	4.3126	53.9677
8.52525	1.90785	4.3126	53.7666
8.62626	1.90785	4.3126	53.5653
8.72727	1.90785	4.3126	53.3638
8.82828	1.90785	4.3126	53.1622
8.92929	1.90785	4.3126	52.9605
9.0303	1.90785	4.3126	52.7588
9.13131	1.90785	4.3126	52.557
9.23232	1.90785	4.3126	52.3551
9.33333	1.90785	4.3126	52.1532
9.43434	1.90785	4.3126	51.9512
9.53535	1.90785	4.3126	51.7492
9.63636	1.90785	4.3126	51.5471
9.73737	1.90785	4.3126	51.345
9.83838	1.90785	4.3126	51.1429
9.93939	1.90785	4.3126	50.9407
10.0404	1.90785	4.3126	50.7384
10.1414	1.90785	4.3126	50.536
10.2424	1.90785	4.3126	50.3335
10.3434	1.90785	4.3126	50.1309
10.4444	1.90785	4.3126	49.9281
10.5455	1.90785	4.3126	49.725
10.6465	1.90785	4.3126	49.5217
10.7475	1.90785	4.3126	49.3179
10.8485	1.90785	4.3126	49.1136
10.9495	1.90785	4.3126	48.9088
11.0505	1.90785	4.3126	48.7031
11.1515	1.90785	4.3126	48.4964
11.2525	1.90785	4.3126	48.2884
11.3535	1.90785	4.3126	48.0789
11.4545	1.90785	4.3126	47.8674
11.5556	1.90785	4.3126	47.6535
11.6566	1.90785	4.3126	47.4368
11.7576	1.90785	4.3126	47.2167
11.8586	1.90785	4.3126	46.9926
11.9596	1.90785	4.3126	46.764
12.0606	1.90785	4.3126	46.5303
12.1616	1.90785	4.3126	46.2911
12.2626	1.90785	4.3126	46.0459
12.3636	1.90785	4.3126	45.7946
12.4646	1.90785	4.3126	45.5371
12.5657	1.90785	4.3126	45.2735
12.6667	1.90785	4.3126	45.004
12.7677	1.90785	4.3126	44.7289
12.8687	1.90785	4.3126	44.4486
12.9697	1.90785	4.3126	44.1636
13.0707	1.90785	4.3126	43.8744
13.1717	1.90785	4.3126	43.5812
13.2727	1.90785	4.3126	43.2845
13.3737	1.90785	4.3126	42.9845
13.4747	1.90785	4.3126	42.6813
13.5758	1.90785	4.3126	42.3751
13.6768	1.90785	4.3126	42.0659
13.7778	1.90785	4.3126	41.7535
13.8788	1.90785	4.3126	41.4377
13.9798	1.90785	4.3126	41.1182
14.0808	1.90785	4.3126	40.7945
14.1818	1.90785	4.3126	40.466
14.2828	1.90785	4.3126	40.1321
14.3838	1.90785	4.3126	39.7917
14.4848	1.90785	4.3126	39.4437
14.5859	1.90785	4.3126	39.0868
14.6869	1.90785	4.3126	38.7193
14.7879	1.90785	4.3126	38.339
14.8889	1.90785	4.3126	37.9434
14.9899	1.90785	4.3126	37.5293
15.0909	1.90785	4.3126	37.093
15.1919	1.90785	4.3126	36.6297
15.2929	1.90785	4.3126	36.1334
15.3939	1.90785	4.3126	35.5967
15.4949	1.90785	4.3126	35.0106
15.596	1.90785	4.3126	34.3633
15.697	1.90785	4.3126	33.6397
15.798	1.90785	4.3126	32.8166
15.899	1.90785	4.3126	31.8345
16	1.90785	4.3126	-inf
6	1.91399	4.38306	58.0362
6.10101	1.91399	4.38306	57.9397
6.20202	1.91399	4.38306	57.8369
6.30303	1.91399	4.38306	57.7254
6.40404	1.91399	4.38306	57.6039
6.50505	1.91399	4.38306	57.4716
6.60606	1.91399	4.38306	57.3289
6.70707	1.91399	4.38306	57.1766
6.80808	1.91399	4.38306	57.0156
6.90909	1.91399	4.38306	56.8472
7.0101	1.91399	4.38306	56.6725
7.11111	1.91399	4.38306	56.4926
7.21212	1.91399	4.38306	56.3084
7.31313	1.91399	4.38306	56.1206
7.41414	1.91399	4.38306	55.93
7.51515	1.91399	4.38306	55.7371
7.61616	1.91399	4.38306	55.5423
7.71717	1.91399	4.38306	55.3461
7.81818	1.91399	4.38306	55.1487
7.91919	1.91399	4.38306	54.9503
8.0202	1.91399	4.38306	54.7512
8.12121	1.91399	4.38306	54.5515
8.22222	1.91399	4.38306	54.3513
8.32323	1.91399	4.38306	54.1507
8.42424	1.91399	4.38306	53.9498
8.52525	1.91399	4.38306	53.7487
8.62626	1.91399	4.38306	53.5474
8.72727	1.91399	4.38306	53.346
8.82828	1.91399	4.38306	53.1444
8.92929	1.91399	4.38306	52.9427
9.0303	1.91399	4.38306	52.741
9.13131	1.91399	4.38306	52.5391
9.23232	1.91399	4.38306	52.3373
9.33333	1.91399	4.38306	52.1353
9.43434	1.91399	4.38306	51.9334
9.53535	1.91399	4.38306	51.7313
9.63636	1.91399	4.38306	51.5293
9.73737	1.91399	4.38306	51.3272
9.83838	1.91399	4.38306	51.125
9.93939	1.91399	4.38306	50.9228
10.0404	1.91399	4.38306	50.7205
10.1414	1.91399	4.38306	50.5181
10.2424	1.91399	4.38306	50.3156
10.3434	1.91399	4.38306	50.113
10.4444	1.91399	4.38306	49.9101
10.5455	1.91399	4.38306	49.707
10.6465	1.91399	4.38306	49.5036
10.7475	1.91399	4.38306	49.2998
10.8485	1.91399	4.38306	49.0955
10.9495	1.91399	4.38306	48.8906
11.0505	1.91399	4.38306	48.6848
11.1515	1.91399	4.38306	48.478
11.2525	1.91399	4.38306	48.27
11.3535	1.91399	4.38306	48.0603
11.4545	1.91399	4.38306	47.8487
11.5556	1.91399	4.38306	47.6347
11.6566	1.91399	4.38306	47.4178
11.7576	1.91399	4.38306	47.1975
11.8586	1.91399	4.38306	46.9732
11.9596	1.91399	4.38306	46.7444
12.0606	1.91399	4.38306	46.5105
12.1616	1.91399	4.38306	46.271
12.2626	1.91399	4.38306	46.0256
12.3636	1.91399	4.38306	45.7741
12.4646	1.91399	4.38306	45.5164
12.5657	1.91399	4.38306	45.2526
12.6667	1.91399	4.38306	44.9829
12.7677	1.91399	4.38306	44.7076
12.8687	1.91399	4.38306	44.4272
12.9697	1.91399	4.38306	44.1421
13.0707	1.91399	4.38306	43.8527
13.1717	1.91399	4.38306	43.5595
13.2727	1.91399	4.38306	43.2627
13.3737	1.91399	4.38306	42.9626
13.4747	1.91399	4.38306	42.6594
13.5758	1.91399	4.38306	42.3532
13.6768	1.91399	4.38306	42.044
13.7778	1.91399	4.38306	41.7315
13.8788	1.91399	4.38306	41.4157
13.9798	1.91399	4.38306	41.0962
14.0808	1.91399	4.38306	40.7725
14.1818	1.91399	4.38306	40.444
14.2828	1.91399	4.38306	40.11
14.3838	1.91399	4.38306	39.7696
14.4848	1.91399	4.38306	39.4217
14.5859	1.91399	4.38306	39.0648
14.6869	1.91399	4.38306	38.6972
14.7879	1.91399	4.38306	38.3169
14.8889	1.91399	4.38306	37.9213
14.9899	1.91399	4.38306	37.5073
15.0909	1.91399	4.38306	37.071
15.1919	1.91399	4.38306	36.6076
15.2929	1.91399	4.38306	36.1113
15.3939	1.91399	4.38306	35.5746
15.4949	1.91399	4.38306	34.9885
15.596	1.91399	4.38306	34.3412
15.697	1.91399	4.38306	33.6176
15.798	1.91399	4.38306	32.7945
15.899	1.91399	4.38306	31.8125
16	1.91399	4.38306	-inf
6	1.92013	4.45232	58.0211
6.10101	1.92013	4.45232	57.9241
6.20202	1.92013	4.45232	57.8207
6.30303	1.92013	4.45232	57.7088
6.40404	1.92013	4.45232	57.5869
6.50505	1.92013	4.45232	57.4543
6.60606	1.92013	4.45232	57.3114
6.70707	1.92013	4.45232	57.1588
6.80808	1.92013	4.45232	56.9977
6.90909	1.92013	4.45232	56.8292
7.0101	1.92013	4.45232	56.6544
7.11111	1.92013	4.45232	56.4744
7.21212	1.92013	4.45232	56.2901
7.31313	1.92013	4.45232	56.1023
7.41414	1.92013	4.45232	55.9117
7.51515	1.92013	4.45232	55.7188
7.61616	1.92013	4.45232	55.524
7.71717	1.92013	4.45232	55.3277
7.81818	1.92013	4.45232	55.1303
7.91919	1.92013	4.45232	54.9319
8.0202	1.92013	4.45232	54.7328
8.12121	1.92013	4.45232	54.5331
8.22222	1.92013	4.45232	54.3329
8.32323	1.92013	4.45232	54.1323
8.42424	1.92013	4.45232	53.9314
8.52525	1.92013	4.45232	53.7303
8.62626	1.92013	4.45232	53.529
8.72727	1.92013	4.45232	53.3275
8.82828	1.92013	4.45232	53.126
8.92929	1.92013	4.45232	52.9243
9.0303	1.92013	4.45232	52.7225
9.13131	1.92013	4.45232	52.5207
9.23232	1.92013	4.45232	52.3188
9.33333	1.92013	4.45232	52.1169
9.43434	1.92013	4.45232	51.9149
9.53535	1.92013	4.45232	51.7129
9.63636	1.92013	4.45232	51.5108
9.73737	1.92013	4.45232	51.3087
9.83838	1.92013	4.45232	51.1066
9.93939	1.92013	4.45232	50.9043
10.0404	1.92013	4.45232	50.702
10.1414	1.92013	4.45232	50.4996
10.2424	1.92013	4.45232	50.2971
10.3434	1.92013	4.45232	50.0944
10.4444	1.92013	4.45232	49.8916
10.5455	1.92013	4.45232	49.6884
10.6465	1.92013	4.45232	49.485
10.7475	1.92013	4.45232	49.2812
10.8485	1.92013	4.45232	49.0768
10.9495	1.92013	4.45232	48.8718
11.0505	1.92013	4.45232	48.666
11.1515	1.92013	4.45232	48.4591
11.2525	1.92013	4.45232	48.2509
11.3535	1.92013	4.45232	48.0412
11.4545	1.92013	4.45232	47.8294
11.5556	1.92013	4.45232	47.6153
11.6566	1.92013	4.45232	47.3982
11.7576	1.92013	4.45232	47.1777
11.8586	1.92013	4.45232	46.9532
11.9596	1.92013	4.45232	46.7242
12.0606	1.92013	4.45232	46.4901
12.1616	1.92013	4.45232	46.2504
12.2626	1.92013	4.45232	46.0048
12.3636	1.92013	4.45232	45.7531
12.4646	1.92013	4.45232	45.4952
12.5657	1.92013	4.45232	45.2312
12.6667	1.92013	4.45232	44.9613
12.7677	1.92013	4.45232	44.6859
12.8687	1.92013	4.45232	44.4053
12.9697	1.92013	4.45232	44.1201
13.0707	1.92013	4.45232	43.8306
13.1717	1.92013	4.45232	43.5373
13.2727	1.92013	4.45232	43.2404
13.3737	1.92013	4.45232	42.9403
13.4747	1.92013	4.45232	42.637
13.5758	1.92013	4.45232	42.3308
13.6768	1.92013	4.45232	42.0215
13.7778	1.92013	4.45232	41.709
13.8788	1.92013	4.45232	41.3932
13.9798	1.92013	4.45232	41.0737
14.0808	1.92013	4.45232	40.7499
14.1818	1.92013	4.45232	40.4215
14.2828	1.92013	4.45232	40.0875
14.3838	1.92013	4.45232	39.7471
14.4848	1.92013	4.45232	39.3991
14.5859	1.92013	4.45232	39.0422
14.6869	1.92013	4.45232	38.6746
14.7879	1.92013	4.45232	38.2943
14.8889	1.92013	4.45232	37.8987
14.9899	1.92013	4.45232	37.4847
15.0909	1.92013	4.45232	37.0484
15.1919	1.92013	4.45232	36.585
15.2929	1.92013	4.45232	36.0887
15.3939	1.92013	4.45232	35.5521
15.4949	1.92013	4.45232	34.9659
15.596	1.92013	4.45232	34.3187
15.697	1.92013	4.45232	33.595
15.798	1.92013	4.45232	32.7719
15.899	1.92013	4.45232	31.7899
16	1.92013	4.45232	-inf
6	1.92628	4.53165	58.0095
6.10101	1.92628	4.53165	57.912
6.20202	1.92628	4.53165	57.8082
6.30303	1.92628	4.53165	57.6959
6.40404	1.92628	4.53165	57.5736
6.50505	1.92628	4.53165	57.4408
6.60606	1.92628	4.53165	57.2977
6.70707	1.92628	4.53165	57.1449
6.80808	1.92628	4.53165	56.9837
6.90909	1.92628	4.53165	56.8151
7.0101	1.92628	4.53165	56.6402
7.11111	1.92628	4.53165	56.4602
7.21212	1.92628	4.53165	56.2758
7.31313	1.92628	4.53165	56.088
7.41414	1.92628	4.53165	55.8973
7.51515	1.92628	4.53165	55.7044
7.61616	1.92628	4.53165	55.5096
7.71717	1.92628	4.53165	55.3133
7.81818	1.92628	4.53165	55.1159
7.91919	1.92628	4.53165	54.9175
8.0202	1.92628	4.53165	54.7183
8.12121	1.92628	4.53165	54.5186
8.22222	1.92628	4.53165	54.3184
8.32323	1.92628	4.53165	54.1178
8.42424	1.92628	4.53165	53.917
8.52525	1.92628	4.53165	53.7158
8.62626	1.92628	4.53165	53.5145
8.72727	1.92628	4.53165	53.3131
8.82828	1.92628	4.53165	53.1115
8.92929	1.92628	4.53165	52.9098
9.0303	1.92628	4.53165	52.708
9.13131	1.92628	4.53165	52.5062
9.23232	1.92628	4.53165	52.3043
9.33333	1.92628	4.53165	52.1024
9.43434	1.92628	4.53165	51.9004
9.53535	1.92628	4.53165	51.6984
9.63636	1.92628	4.53165	51.4963
9.73737	1.92628	4.53165	51.2942
9.83838	1.92628	4.53165	51.092
9.93939	1.92628	4.53165	50.8898
10.0404	1.92628	4.53165	50.6875
10.1414	1.92628	4.53165	50.4851
10.2424	1.92628	4.53165	50.2826
10.3434	1.92628	4.53165	50.0799
10.4444	1.92628	4.53165	49.877
10.5455	1.92628	4.53165	49.6738
10.6465	1.92628	4.53165	49.4704
10.7475	1.92628	4.53165	49.2665
10.8485	1.92628	4.53165	49.0621
10.9495	1.92628	4.53165	48.857
11.0505	1.92628	4.53165	48.6511
11.1515	1.92628	4.53165	48.4442
11.2525	1.92628	4.53165	48.2359
11.3535	1.92628	4.53165	48.026
11.4545	1.92628	4.53165	47.8141
11.5556	1.92628	4.53165	47.5998
11.6566	1.92628	4.53165	47.3826
11.7576	1.92628	4.53165	47.1619
11.8586	1.92628	4.53165	46.9373
11.9596	1.92628	4.53165	46.708
12.0606	1.92628	4.53165	46.4737
12.1616	1.92628	4.53165	46.2337
12.2626	1.92628	4.53165	45.9879
12.3636	1.92628	4.53165	45.736
12.4646	1.92628	4.53165	45.4778
12.5657	1.92628	4.53165	45.2136
12.6667	1.92628	4.53165	44.9435
12.7677	1.92628	4.53165	44.6679
12.8687	1.92628	4.53165	44.3872
12.9697	1.92628	4.53165	44.1019
13.0707	1.92628	4.53165	43.8123
13.1717	1.92628	4.53165	43.5188
13.2727	1.92628	4.53165	43.2219
13.3737	1.92628	4.53165	42.9217
13.4747	1.92628	4.53165	42.6184
13.5758	1.92628	4.53165	42.3121
13.6768	1.92628	4.53165	42.0028
13.7778	1.92628	4.53165	41.6903
13.8788	1.92628	4.53165	41.3744
13.9798	1.92628	4.53165	41.0549
14.0808	1.92628	4.53165	40.7311
14.1818	1.92628	4.53165	40.4027
14.2828	1.92628	4.53165	40.0687
14.3838	1.92628	4.53165	39.7283
14.4848	1.92628	4.53165	39.3803
14.5859	1.92628	4.53165	39.0234
14.6869	1.92628	4.53165	38.6558
14.7879	1.92628	4.53165	38.2755
14.8889	1.92628	4.53165	37.8799
14.9899	1.92628	4.53165	37.4659
15.0909	1.92628	4.53165	37.0295
15.1919	1.92628	4.53165	36.5662
15.2929	1.92628	4.53165	36.0699
15.3939	1.92628	4.53165	35.5332
15.4949	1.92628	4.53165	34.9471
15.596	1.92628	4.53165	34.2998
15.697	1.92628	4.53165	33.5762
15.798	1.92628	4.53165	32.7531
15.899	1.92628	4.53165	31.771
16	1.92628	4.53165	-inf
6	1.93242	4.59877	57.9929
6.10101	1.93242	4.59877	57.8948
6.20202	1.93242	4.59877	57.7905
6.30303	1.93242	4.59877	57.6778
6.40404	1.93242	4.59877	57.5552
6.50505	1.93242	4.59877	57.4222
6.60606	1.93242	4.59877	57.2788
6.70707	1.93242	4.59877	57.1259
6.80808	1.93242	4.59877	56.9645
6.90909	1.93242	4.59877	56.7958
7.0101	1.93242	4.59877	56.6209
7.11111	1.93242	4.59877	56.4408
7.21212	1.93242	4.59877	56.2564
7.31313	1.93242	4.59877	56.0685
7.41414	1.93242	4.59877	55.8778
7.51515	1.93242	4.59877	55.6848
7.61616	1.93242	4.59877	55.49
7.71717	1.93242	4.59877	55.2937
7.81818	1.93242	4.59877	55.0962
7.91919	1.93242	4.59877	54.8979
8.0202	1.93242	4.59877	54.6987
8.12121	1.93242	4.59877	54.499
8.22222	1.93242	4.59877	54.2988
8.32323	1.93242	4.59877	54.0982
8.42424	1.93242	4.59877	53.8973
8.52525	1.93242	4.59877	53.6962
8.62626	1.93242	4.59877	53.4949
8.72727	1.93242	4.59877	53.2934
8.82828	1.93242	4.59877	53.0918
8.92929	1.93242	4.59877	52.8901
9.0303	1.93242	4.59877	52.6884
9.13131	1.93242	4.59877	52.4866
9.23232	1.93242	4.59877	52.2847
9.33333	1.93242	4.59877	52.0827
9.43434	1.93242	4.59877	51.8807
9.53535	1.93242	4.59877	51.6787
9.63636	1.93242	4.59877	51.4767
9.73737	1.93242	4.59877	51.2745
9.83838	1.93242	4.59877	51.0724
9.93939	1.93242	4.59877	50.8701
10.0404	1.93242	4.59877	50.6678
10.1414	1.93242	4.59877	50.4654
10.2424	1.93242	4.59877	50.2628
10.3434	1.93242	4.59877	50.0601
10.4444	1.93242	4.59877	49.8572
10.5455	1.93242	4.59877	49.654
10.6465	1.93242	4.59877	49.4505
10.7475	1.93242	4.59877	49.2466
10.8485	1.93242	4.59877	49.0422
10.9495	1.93242	4.59877	48.837
11.0505	1.93242	4.59877	48.6311
11.1515	1.93242	4.59877	48.424
11.2525	1.93242	4.59877	48.2157
11.3535	1.93242	4.59877	48.0057
11.4545	1.93242	4.59877	47.7937
11.5556	1.93242	4.59877	47.5792
11.6566	1.93242	4.59877	47.3619
11.7576	1.93242	4.59877	47.141
11.8586	1.93242	4.59877	46.9161
11.9596	1.93242	4.59877	46.6867
12.0606	1.93242	4.59877	46.4521
12.1616	1.93242	4.59877	46.212
12.2626	1.93242	4.59877	45.966
12.3636	1.93242	4.59877	45.7138
12.4646	1.93242	4.59877	45.4555
12.5657	1.93242	4.59877	45.1911
12.6667	1.93242	4.59877	44.9208
12.7677	1.93242	4.59877	44.6451
12.8687	1.93242	4.59877	44.3642
12.9697	1.93242	4.59877	44.0788
13.0707	1.93242	4.59877	43.7891
13.1717	1.93242	4.59877	43.4956
13.2727	1.93242	4.59877	43.1986
13.3737	1.93242	4.59877	42.8983
13.4747	1.93242	4.59877	42.595
13.5758	1.93242	4.59877	42.2886
13.6768	1.93242	4.59877	41.9793
13.7778	1.93242	4.59877	41.6668
13.8788	1.93242	4.59877	41.3509
13.9798	1.93242	4.59877	41.0313
14.0808	1.93242	4.59877	40.7076
14.1818	1.93242	4.59877	40.3791
14.2828	1.93242	4.59877	40.0451
14.3838	1.93242	4.59877	39.7047
14.4848	1.93242	4.59877	39.3567
14.5859	1.93242	4.59877	38.9998
14.6869	1.93242	4.59877	38.6322
14.7879	1.93242	4.59877	38.2519
14.8889	1.93242	4.59877	37.8563
14.9899	1.93242	4.59877	37.4422
15.0909	1.93242	4.59877	37.0059
15.1919	1.93242	4.59877	36.5426
15.2929	1.93242	4.59877	36.0462
15.3939	1.93242	4.59877	35.5096
15.4949	1.93242	4.59877	34.9234
15.596	1.93242	4.59877	34.2762
15.697	1.93242	4.59877	33.5525
15.798	1.93242	4.59877	32.7294
15.899	1.93242	4.59877	31.7474
16	1.93242	4.59877	-inf
6	1.93857	4.67619	57.9799
6.10101	1.93857	4.67619	57.8813
6.20202	1.93857	4.67619	57.7766
6.30303	1.93857	4.67619	57.6636
6.40404	1.93857	4.67619	57.5407
6.50505	1.93857	4.67619	57.4074
6.60606	1.93857	4.67619	57.2639
6.70707	1.93857	4.67619	57.1108
6.80808	1.93857	4.67619	56.9493
6.90909	1.93857	4.67619	56.7805
7.0101	1.93857	4.67619	56.6055
7.11111	1.93857	4.67619	56.4253
7.21212	1.93857	4.67619	56.2409
7.31313	1.93857	4.67619	56.053
7.41414	1.93857	4.67619	55.8623
7.51515	1.93857	4.67619	55.6692
7.61616	1.93857	4.67619	55.4744
7.71717	1.93857	4.67619	55.2781
7.81818	1.93857	4.67619	55.0807
7.91919	1.93857	4.67619	54.8823
8.0202	1.93857	4.67619	54.6831
8.12121	1.93857	4.67619	54.4834
8.22222	1.93857	4.67619	54.2832
8.32323	1.93857	4.67619	54.0826
8.42424	1.93857	4.67619	53.8817
8.52525	1.93857	4.67619	53.6806
8.62626	1.93857	4.67619	53.4792
8.72727	1.93857	4.67619	53.2778
8.82828	1.93857	4.67619	53.0762
8.92929	1.93857	4.67619	52.8745
9.0303	1.93857	4.67619	52.6727
9.13131	1.93857	4.67619	52.4709
9.23232	1.93857	4.67619	52.269
9.33333	1.93857	4.67619	52.0671
9.43434	1.93857	4.67619	51.8651
9.53535	1.93857	4.67619	51.6631
9.63636	1.93857	4.67619	51.461
9.73737	1.93857	4.67619	51.2589
9.83838	1.93857	4.67619	51.0567
9.93939	1.93857	4.67619	50.8544
10.0404	1.93857	4.67619	50.6521
10.1414	1.93857	4.67619	50.4497
10.2424	1.93857	4.67619	50.2471
10.3434	1.93857	4.67619	50.0444
10.4444	1.93857	4.67619	49.8414
10.5455	1.93857	4.67619	49.6382
10.6465	1.93857	4.67619	49.4347
10.7475	1.93857	4.67619	49.2308
10.8485	1.93857	4.67619	49.0263
10.9495	1.93857	4.67619	48.8211
11.0505	1.93857	4.67619	48.6151
11.1515	1.93857	4.67619	48.4079
11.2525	1.93857	4.67619	48.1995
11.3535	1.93857	4.67619	47.9894
11.4545	1.93857	4.67619	47.7773
11.5556	1.93857	4.67619	47.5627
11.6566	1.93857	4.67619	47.3451
11.7576	1.93857	4.67619	47.1241
11.8586	1.93857	4.67619	46.8991
11.9596	1.93857	4.67619	46.6694
12.0606	1.93857	4.67619	46.4346
12.1616	1.93857	4.67619	46.1943
12.2626	1.93857	4.67619	45.948
12.3636	1.93857	4.67619	45.6956
12.4646	1.93857	4.67619	45.4371
12.5657	1.93857	4.67619	45.1725
12.6667	1.93857	4.67619	44.902
12.7677	1.93857	4.67619	44.6261
12.8687	1.93857	4.67619	44.3451
12.9697	1.93857	4.67619	44.0595
13.0707	1.93857	4.67619	43.7697
13.1717	1.93857	4.67619	43.4761
13.2727	1.93857	4.67619	43.179
13.3737	1.93857	4.67619	42.8787
13.4747	1.93857	4.67619	42.5753
13.5758	1.93857	4.67619	42.2689
13.6768	1.93857	4.67619	41.9595
13.7778	1.93857	4.67619	41.647
13.8788	1.93857	4.67619	41.3311
13.9798	1.93857	4.67619	41.0115
14.0808	1.93857	4.67619	40.6877
14.1818	1.93857	4.67619	40.3592
14.2828	1.93857	4.67619	40.0252
14.3838	1.93857	4.67619	39.6848
14.4848	1.93857	4.67619	39.3368
14.5859	1.93857	4.67619	38.9799
14.6869	1.93857	4.67619	38.6123
14.7879	1.93857	4.67619	38.232
14.8889	1.93857	4.67619	37.8364
14.9899	1.93857	4.67619	37.4224
15.0909	1.93857	4.67619	36.9861
15.1919	1.93857	4.67619	36.5227
15.2929	1.93857	4.67619	36.0264
15.3939	1.93857	4.67619	35.4897
15.4949	1.93857	4.67619	34.9036
15.596	1.93857	4.67619	34.2563
15.697	1.93857	4.67619	33.5327
15.798	1.93857	4.67619	32.7096
15.899	1.93857	4.67619	31.7275
16	1.93857	4.67619	-inf
6	1.94471	4.74146	57.9618
6.10101	1.94471	4.74146	57.8627
6.20202	1.94471	4.74146	57.7576
6.30303	1.94471	4.74146	57.6442
6.40404	1.94471	4.74146	57.521
6.50505	1.94471	4.74146	57.3874
6.60606	1.94471	4.74146	57.2437
6.70707	1.94471	4.74146	57.0905
6.80808	1.94471	4.74146	56.9289
6.90909	1.94471	4.74146	56.76
7.0101	1.94471	4.74146	56.5849
7.11111	1.94471	4.74146	56.4046
7.21212	1.94471	4.74146	56.2202
7.31313	1.94471	4.74146	56.0322
7.41414	1.94471	4.74146	55.8415
7.51515	1.94471	4.74146	55.6484
7.61616	1.94471	4.74146	55.4536
7.71717	1.94471	4.74146	55.2573
7.81818	1.94471	4.74146	55.0598
7.91919	1.94471	4.74146	54.8614
8.0202	1.94471	4.74146	54.6622
8.12121	1.94471	4.74146	54.4625
8.22222	1.94471	4.74146	54.2623
8.32323	1.94471	4.74146	54.0617
8.42424	1.94471	4.74146	53.8608
8.52525	1.94471	4.74146	53.6597
8.62626	1.94471	4.74146	53.4584
8.72727	1.94471	4.74146	53.2569
8.82828	1.94471	4.74146	53.0553
8.92929	1.94471	4.74146	52.8536
9.0303	1.94471	4.74146	52.6518
9.13131	1.94471	4.74146	52.45
9.23232	1.94471	4.74146	52.2481
9.33333	1.94471	4.74146	52.0462
9.43434	1.94471	4.74146	51.8442
9.53535	1.94471	4.74146	51.6422
9.63636	1.94471	4.74146	51.4401
9.73737	1.94471	4.74146	51.238
9.83838	1.94471	4.74146	51.0358
9.93939	1.94471	4.74146	50.8335
10.0404	1.94471	4.74146	50.6312
10.1414	1.94471	4.74146	50.4287
10.2424	1.94471	4.74146	50.2261
10.3434	1.94471	4.74146	50.0234
10.4444	1.94471	4.74146	49.8204
10.5455	1.94471	4.74146	49.6172
10.6465	1.94471	4.74146	49.4136
10.7475	1.94471	4.74146	49.2097
10.8485	1.94471	4.74146	49.0051
10.9495	1.94471	4.74146	48.7999
11.0505	1.94471	4.74146	48.5938
11.1515	1.94471	4.74146	48.3866
11.2525	1.94471	4.74146	48.1781
11.3535	1.94471	4.74146	47.9679
11.4545	1.94471	4.74146	47.7556
11.5556	1.94471	4.74146	47.5409
11.6566	1.94471	4.74146	47.3232
11.7576	1.94471	4.74146	47.102
11.8586	1.94471	4.74146	46.8768
11.9596	1.94471	4.74146	46.6469
12.0606	1.94471	4.74146	46.412
12.1616	1.94471	4.74146	46.1714
12.2626	1.94471	4.74146	45.9249
12.3636	1.94471	4.74146	45.6723
12.4646	1.94471	4.74146	45.4136
12.5657	1.94471	4.74146	45.1488
12.6667	1.94471	4.74146	44.8782
12.7677	1.94471	4.74146	44.6021
12.8687	1.94471	4.74146	44.321
12.9697	1.94471	4.74146	44.0353
13.0707	1.94471	4.74146	43.7454
13.1717	1.94471	4.74146	43.4517
13.2727	1.94471	4.74146	43.1546
13.3737	1.94471	4.74146	42.8542
13.4747	1.94471	4.74146	42.5508
13.5758	1.94471	4.74146	42.2444
13.6768	1.94471	4.74146	41.9349
13.7778	1.94471	4.74146	41.6224
13.8788	1.94471	4.74146	41.3065
13.9798	1.94471	4.74146	40.9868
14.0808	1.94471	4.74146	40.6631
14.1818	1.94471	4.74146	40.3346
14.2828	1.94471	4.74146	40.0005
14.3838	1.94471	4.74146	39.6601
14.4848	1.94471	4.74146	39.3121
14.5859	1.94471	4.74146	38.9552
14.6869	1.94471	4.74146	38.5876
14.7879	1.94471	4.74146	38.2073
14.8889	1.94471	4.74146	37.8117
14.9899	1.94471	4.74146	37.3977
15.0909	1.94471	4.74146	36.9613
15.1919	1.94471	4.74146	36.498
15.2929	1.94471	4.74146	36.0016
15.3939	1.94471	4.74146	35.465
15.4949	1.94471	4.74146	34.8789
15.596	1.94471	4.74146	34.2316
15.697	1.94471	4.74146	33.508
15.798	1.94471	4.74146	32.6848
15.899	1.94471	4.74146	31.7028
16	1.94471	4.74146	-inf
6	1.95085	4.81722	57.9473
6.10101	1.95085	4.81722	57.8478
6.20202	1.95085	4.81722	57.7423
6.30303	1.95085	4.81722	57.6286
6.40404	1.95085	4.81722	57.5052
6.50505	1.95085	4.81722	57.3714
6.60606	1.95085	4.81722	57.2275
6.70707	1.95085	4.81722	57.0742
6.80808	1.95085	4.81722	56.9124
6.90909	1.95085	4.81722	56.7435
7.0101	1.95085	4.81722	56.5683
7.11111	1.95085	4.81722	56.388
7.21212	1.95085	4.81722	56.2035
7.31313	1.95085	4.81722	56.0155
7.41414	1.95085	4.81722	55.8247
7.51515	1.95085	4.81722	55.6317
7.61616	1.95085	4.81722	55.4368
7.71717	1.95085	4.81722	55.2405
7.81818	1.95085	4.81722	55.043
7.91919	1.95085	4.81722	54.8446
8.0202	1.95085	4.81722	54.6454
8.12121	1.95085	4.81722	54.4457
8.22222	1.95085	4.81722	54.2455
8.32323	1.95085	4.81722	54.0449
8.42424	1.95085	4.81722	53.844
8.52525	1.95085	4.81722	53.6428
8.62626	1.95085	4.81722	53.4415
8.72727	1.95085	4.81722	53.2401
8.82828	1.95085	4.81722	53.0385
8.92929	1.95085	4.81722	52.8368
9.0303	1.95085	4.81722	52.635
9.13131	1.95085	4.81722	52.4332
9.23232	1.95085	4.81722	52.2313
9.33333	1.95085	4.81722	52.0293
9.43434	1.95085	4.81722	51.8274
9.53535	1.95085	4.81722	51.6253
9.63636	1.95085	4.81722	51.4232
9.73737	1.95085	4.81722	51.2211
9.83838	1.95085	4.81722	51.0189
9.93939	1.95085	4.81722	50.8166
10.0404	1.95085	4.81722	50.6143
10.1414	1.95085	4.81722	50.4118
10.2424	1.95085	4.81722	50.2092
10.3434	1.95085	4.81722	50.0065
10.4444	1.95085	4.81722	49.8035
10.5455	1.95085	4.81722	49.6003
10.6465	1.95085	4.81722	49.3967
10.7475	1.95085	4.81722	49.1926
10.8485	1.95085	4.81722	48.988
10.9495	1.95085	4.81722	48.7828
11.0505	1.95085	4.81722	48.5766
11.1515	1.95085	4.81722	48.3693
11.2525	1.95085	4.81722	48.1607
11.3535	1.95085	4.81722	47.9504
11.4545	1.95085	4.81722	47.738
11.5556	1.95085	4.81722	47.5232
11.6566	1.95085	4.81722	47.3053
11.7576	1.95085	4.81722	47.084
11.8586	1.95085	4.81722	46.8586
11.9596	1.95085	4.81722	46.6285
12.0606	1.95085	4.81722	46.3933
12.1616	1.95085	4.81722	46.1525
12.2626	1.95085	4.81722	45.9058
12.3636	1.95085	4.81722	45.653
12.4646	1.95085	4.81722	45.3941
12.5657	1.95085	4.81722	45.1291
12.6667	1.95085	4.81722	44.8583
12.7677	1.95085	4.81722	44.5821
12.8687	1.95085	4.81722	44.3008
12.9697	1.95085	4.81722	44.015
13.0707	1.95085	4.81722	43.725
13.1717	1.95085	4.81722	43.4312
13.2727	1.95085	4.81722	43.134
13.3737	1.95085	4.81722	42.8335
13.4747	1.95085	4.81722	42.5301
13.5758	1.95085	4.81722	42.2236
13.6768	1.95085	4.81722	41.9141
13.7778	1.95085	4.81722	41.6015
13.8788	1.95085	4.81722	41.2856
13.9798	1.95085	4.81722	40.966
14.0808	1.95085	4.81722	40.6422
14.1818	1.95085	4.81722	40.3137
14.2828	1.95085	4.81722	39.9796
14.3838	1.95085	4.81722	39.6392
14.4848	1.95085	4.81722	39.2912
14.5859	1.95085	4.81722	38.9343
14.6869	1.95085	4.81722	38.5667
14.7879	1.95085	4.81722	38.1864
14.8889	1.95085	4.81722	37.7908
14.9899	1.95085	4.81722	37.3767
15.0909	1.95085	4.81722	36.9404
15.1919	1.95085	4.81722	36.477
15.2929	1.95085	4.81722	35.9807
15.3939	1.95085	4.81722	35.4441
15.4949	1.95085	4.81722	34.8579
15.596	1.95085	4.81722	34.2107
15.697	1.95085	4.81722	33.487
15.798	1.95085	4.81722	32.6639
15.899	1.95085	4.81722	31.6819
16	1.95085	4.81722	-inf
6	1.957	4.89226	57.9321
6.10101	1.957	4.89226	57.8322
6.20202	1.957	4.89226	57.7264
6.30303	1.957	4.89226	57.6124
6.40404	1.957	4.89226	57.4887
6.50505	1.957	4.89226	57.3547
6.60606	1.957	4.89226	57.2107
6.70707	1.957	4.89226	57.0572
6.80808	1.957	4.89226	56.8954
6.90909	1.957	4.89226	56.7263
7.0101	1.957	4.89226	56.5511
7.11111	1.957	4.89226	56.3708
7.21212	1.957	4.89226	56.1862
7.31313	1.957	4.89226	55.9982
7.41414	1.957	4.89226	55.8074
7.51515	1.957	4.89226	55.6143
7.61616	1.957	4.89226	55.4195
7.71717	1.957	4.89226	55.2231
7.81818	1.957	4.89226	55.0256
7.91919	1.957	4.89226	54.8272
8.0202	1.957	4.89226	54.628
8.12121	1.957	4.89226	54.4283
8.22222	1.957	4.89226	54.2281
8.32323	1.957	4.89226	54.0275
8.42424	1.957	4.89226	53.8266
8.52525	1.957	4.89226	53.6254
8.62626	1.957	4.89226	53.4241
8.72727	1.957	4.89226	53.2227
8.82828	1.957	4.89226	53.0211
8.92929	1.957	4.89226	52.8194
9.0303	1.957	4.89226	52.6176
9.13131	1.957	4.89226	52.4158
9.23232	1.957	4.89226	52.2139
9.33333	1.957	4.89226	52.0119
9.43434	1.957	4.89226	51.8099
9.53535	1.957	4.89226	51.6079
9.63636	1.957	4.89226	51.4058
9.73737	1.957	4.89226	51.2037
9.83838	1.957	4.89226	51.0015
9.93939	1.957	4.89226	50.7992
10.0404	1.957	4.89226	50.5968
10.1414	1.957	4.89226	50.3944
10.2424	1.957	4.89226	50.1918
10.3434	1.957	4.89226	49.989
10.4444	1.957	4.89226	49.786
10.5455	1.957	4.89226	49.5827
10.6465	1.957	4.89226	49.3791
10.7475	1.957	4.89226	49.175
10.8485	1.957	4.89226	48.9704
10.9495	1.957	4.89226	48.765
11.0505	1.957	4.89226	48.5588
11.1515	1.957	4.89226	48.3515
11.2525	1.957	4.89226	48.1428
11.3535	1.957	4.89226	47.9324
11.4545	1.957	4.89226	47.7199
11.5556	1.957	4.89226	47.5049
11.6566	1.957	4.89226	47.2869
11.7576	1.957	4.89226	47.0654
11.8586	1.957	4.89226	46.8398
11.9596	1.957	4.89226	46.6095
12.0606	1.957	4.89226	46.3741
12.1616	1.957	4.89226	46.1331
12.2626	1.957	4.89226	45.8862
12.3636	1.957	4.89226	45.6332
12.4646	1.957	4.89226	45.374
12.5657	1.957	4.89226	45.1088
12.6667	1.957	4.89226	44.8378
12.7677	1.957	4.89226	44.5615
12.8687	1.957	4.89226	44.2801
12.9697	1.957	4.89226	43.9941
13.0707	1.957	4.89226	43.704
13.1717	1.957	4.89226	43.4101
13.2727	1.957	4.89226	43.1128
13.3737	1.957	4.89226	42.8123
13.4747	1.957	4.89226	42.5088
13.5758	1.957	4.89226	42.2023
13.6768	1.957	4.89226	41.8928
13.7778	1.957	4.89226	41.5802
13.8788	1.957	4.89226	41.2642
13.9798	1.957	4.89226	40.9446
14.0808	1.957	4.89226	40.6208
14.1818	1.957	4.89226	40.2922
14.2828	1.957	4.89226	39.9582
14.3838	1.957	4.89226	39.6178
14.4848	1.957	4.89226	39.2698
14.5859	1.957	4.89226	38.9128
14.6869	1.957	4.89226	38.5452
14.7879	1.957	4.89226	38.1649
14.8889	1.957	4.89226	37.7693
14.9899	1.957	4.89226	37.3553
15.0909	1.957	4.89226	36.9189
15.1919	1.957	4.89226	36.4556
15.2929	1.957	4.89226	35.9592
15.3939	1.957	4.89226	35.4226
15.4949	1.957	4.89226	34.8365
15.596	1.957	4.89226	34.1892
15.697	1.957	4.89226	33.4656
15.798	1.957	4.89226	32.6424
15.899	1.957	4.89226	31.6604
16	1.957	4.89226	-inf
6	1.96314	4.96664	57.9162
6.10101	1.96314	4.96664	57.816
6.20202	1.96314	4.96664	57.7098
6.30303	1.96314	4.96664	57.5955
6.40404	1.96314	4.96664	57.4716
6.50505	1.96314	4.96664	57.3374
6.60606	1.96314	4.96664	57.1932
6.70707	1.96314	4.96664	57.0396
6.80808	1.96314	4.96664	56.8777
6.90909	1.96314	4.96664	56.7086
7.0101	1.96314	4.96664	56.5333
7.11111	1.96314	4.96664	56.3529
7.21212	1.96314	4.96664	56.1683
7.31313	1.96314	4.96664	55.9803
7.41414	1.96314	4.96664	55.7895
7.51515	1.96314	4.96664	55.5964
7.61616	1.96314	4.96664	55.4015
7.71717	1.96314	4.96664	55.2052
7.81818	1.96314	4.96664	55.0076
7.91919	1.96314	4.96664	54.8092
8.0202	1.96314	4.96664	54.61
8.12121	1.96314	4.96664	54.4103
8.22222	1.96314	4.96664	54.2101
8.32323	1.96314	4.96664	54.0095
8.42424	1.96314	4.96664	53.8086
8.52525	1.96314	4.96664	53.6074
8.62626	1.96314	4.96664	53.4061
8.72727	1.96314	4.96664	53.2046
8.82828	1.96314	4.96664	53.003
8.92929	1.96314	4.96664	52.8013
9.0303	1.96314	4.96664	52.5996
9.13131	1.96314	4.96664	52.3977
9.23232	1.96314	4.96664	52.1958
9.33333	1.96314	4.96664	51.9939
9.43434	1.96314	4.96664	51.7919
9.53535	1.96314	4.96664	51.5899
9.63636	1.96314	4.96664	51.3878
9.73737	1.96314	4.96664	51.1856
9.83838	1.96314	4.96664	50.9834
9.93939	1.96314	4.96664	50.7811
10.0404	1.96314	4.96664	50.5788
10.1414	1.96314	4.96664	50.3763
10.2424	1.96314	4.96664	50.1737
10.3434	1.96314	4.96664	49.9709
10.4444	1.96314	4.96664	49.7679
10.5455	1.96314	4.96664	49.5646
10.6465	1.96314	4.96664	49.3609
10.7475	1.96314	4.96664	49.1568
10.8485	1.96314	4.96664	48.9521
10.9495	1.96314	4.96664	48.7467
11.0505	1.96314	4.96664	48.5405
11.1515	1.96314	4.96664	48.333
11.2525	1.96314	4.96664	48.1243
11.3535	1.96314	4.96664	47.9137
11.4545	1.96314	4.96664	47.7011
11.5556	1.96314	4.96664	47.486
11.6566	1.96314	4.96664	47.2679
11.7576	1.96314	4.96664	47.0462
11.8586	1.96314	4.96664	46.8204
11.9596	1.96314	4.96664	46.5899
12.0606	1.96314	4.96664	46.3543
12.1616	1.96314	4.96664	46.1131
12.2626	1.96314	4.96664	45.866
12.3636	1.96314	4.96664	45.6127
12.4646	1.96314	4.96664	45.3534
12.5657	1.96314	4.96664	45.088
12.6667	1.96314	4.96664	44.8168
12.7677	1.96314	4.96664	44.5403
12.8687	1.96314	4.96664	44.2587
12.9697	1.96314	4.96664	43.9726
13.0707	1.96314	4.96664	43.6824
13.1717	1.96314	4.96664	43.3885
13.2727	1.96314	4.96664	43.0911
13.3737	1.96314	4.96664	42.7905
13.4747	1.96314	4.96664	42.487
13.5758	1.96314	4.96664	42.1804
13.6768	1.96314	4.96664	41.8709
13.7778	1.96314	4.96664	41.5583
13.8788	1.96314	4.96664	41.2423
13.9798	1.96314	4.96664	40.9226
14.0808	1.96314	4.96664	40.5988
14.1818	1.96314	4.96664	40.2702
14.2828	1.96314	4.96664	39.9362
14.3838	1.96314	4.96664	39.5958
14.4848	1.96314	4.96664	39.2478
14.5859	1.96314	4.96664	38.8908
14.6869	1.96314	4.96664	38.5232
14.7879	1.96314	4.96664	38.1429
14.8889	1.96314	4.96664	37.7473
14.9899	1.96314	4.96664	37.3332
15.0909	1.96314	4.96664	36.8969
15.1919	1.96314	4.96664	36.4335
15.2929	1.96314	4.96664	35.9372
15.3939	1.96314	4.96664	35.4006
15.4949	1.96314	4.96664	34.8144
15.596	1.96314	4.96664	34.1672
15.697	1.96314	4.96664	33.4435
15.798	1.96314	4.96664	32.6204
15.899	1.96314	4.96664	31.6384
16	1.96314	4.96664	-inf
6	1.96928	5.04041	57.8996
6.10101	1.96928	5.04041	57.799
6.20202	1.96928	5.04041	57.6925
6.30303	1.96928	5.04041	57.5779
6.40404	1.96928	5.04041	57.4538
6.50505	1.96928	5.04041	57.3195
6.60606	1.96928	5.04041	57.1751
6.70707	1.96928	5.04041	57.0214
6.80808	1.96928	5.04041	56.8594
6.90909	1.96928	5.04041	56.6902
7.0101	1.96928	5.04041	56.5149
7.11111	1.96928	5.04041	56.3344
7.21212	1.96928	5.04041	56.1498
7.31313	1.96928	5.04041	55.9618
7.41414	1.96928	5.04041	55.7709
7.51515	1.96928	5.04041	55.5778
7.61616	1.96928	5.04041	55.3829
7.71717	1.96928	5.04041	55.1865
7.81818	1.96928	5.04041	54.989
7.91919	1.96928	5.04041	54.7906
8.0202	1.96928	5.04041	54.5914
8.12121	1.96928	5.04041	54.3917
8.22222	1.96928	5.04041	54.1914
8.32323	1.96928	5.04041	53.9908
8.42424	1.96928	5.04041	53.7899
8.52525	1.96928	5.04041	53.5888
8.62626	1.96928	5.04041	53.3875
8.72727	1.96928	5.04041	53.186
8.82828	1.96928	5.04041	52.9844
8.92929	1.96928	5.04041	52.7827
9.0303	1.96928	5.04041	52.5809
9.13131	1.96928	5.04041	52.3791
9.23232	1.96928	5.04041	52.1772
9.33333	1.96928	5.04041	51.9752
9.43434	1.96928	5.04041	51.7732
9.53535	1.96928	5.04041	51.5712
9.63636	1.96928	5.04041	51.3691
9.73737	1.96928	5.04041	51.167
9.83838	1.96928	5.04041	50.9647
9.93939	1.96928	5.04041	50.7625
10.0404	1.96928	5.04041	50.5601
10.1414	1.96928	5.04041	50.3576
10.2424	1.96928	5.04041	50.1549
10.3434	1.96928	5.04041	49.9521
10.4444	1.96928	5.04041	49.7491
10.5455	1.96928	5.04041	49.5458
10.6465	1.96928	5.04041	49.3421
10.7475	1.96928	5.04041	49.138
10.8485	1.96928	5.04041	48.9332
10.9495	1.96928	5.04041	48.7278
11.0505	1.96928	5.04041	48.5215
11.1515	1.96928	5.04041	48.314
11.2525	1.96928	5.04041	48.1051
11.3535	1.96928	5.04041	47.8945
11.4545	1.96928	5.04041	47.6818
11.5556	1.96928	5.04041	47.4665
11.6566	1.96928	5.04041	47.2482
11.7576	1.96928	5.04041	47.0264
11.8586	1.96928	5.04041	46.8004
11.9596	1.96928	5.04041	46.5698
12.0606	1.96928	5.04041	46.3339
12.1616	1.96928	5.04041	46.0925
12.2626	1.96928	5.04041	45.8452
12.3636	1.96928	5.04041	45.5917
12.4646	1.96928	5.04041	45.3321
12.5657	1.96928	5.04041	45.0665
12.6667	1.96928	5.04041	44.7952
12.7677	1.96928	5.04041	44.5185
12.8687	1.96928	5.04041	44.2368
12.9697	1.96928	5.04041	43.9506
13.0707	1.96928	5.04041	43.6603
13.1717	1.96928	5.04041	43.3662
13.2727	1.96928	5.04041	43.0688
13.3737	1.96928	5.04041	42.7682
13.4747	1.96928	5.04041	42.4645
13.5758	1.96928	5.04041	42.158
13.6768	1.96928	5.04041	41.8484
13.7778	1.96928	5.04041	41.5357
13.8788	1.96928	5.04041	41.2197
13.9798	1.96928	5.04041	40.9001
14.0808	1.96928	5.04041	40.5762
14.1818	1.96928	5.04041	40.2477
14.2828	1.96928	5.04041	39.9136
14.3838	1.96928	5.04041	39.5732
14.4848	1.96928	5.04041	39.2252
14.5859	1.96928	5.04041	38.8682
14.6869	1.96928	5.04041	38.5006
14.7879	1.96928	5.04041	38.1203
14.8889	1.96928	5.04041	37.7247
14.9899	1.96928	5.04041	37.3106
15.0909	1.96928	5.04041	36.8743
15.1919	1.96928	5.04041	36.4109
15.2929	1.96928	5.04041	35.9146
15.3939	1.96928	5.04041	35.378
15.4949	1.96928	5.04041	34.7918
15.596	1.96928	5.04041	34.1446
15.697	1.96928	5.04041	33.4209
15.798	1.96928	5.04041	32.5978
15.899	1.96928	5.04041	31.6158
16	1.96928	5.04041	-inf
6	1.97543	5.11361	57.8822
6.10101	1.97543	5.11361	57.7813
6.20202	1.97543	5.11361	57.6745
6.30303	1.97543	5.11361	57.5597
6.40404	1.97543	5.11361	57.4353
6.50505	1.97543	5.11361	57.3008
6.60606	1.97543	5.11361	57.1563
6.70707	1.97543	5.11361	57.0025
6.80808	1.97543	5.11361	56.8404
6.90909	1.97543	5.11361	56.6712
7.0101	1.97543	5.11361	56.4958
7.11111	1.97543	5.11361	56.3153
7.21212	1.97543	5.11361	56.1307
7.31313	1.97543	5.11361	55.9426
7.41414	1.97543	5.11361	55.7517
7.51515	1.97543	5.11361	55.5586
7.61616	1.97543	5.11361	55.3637
7.71717	1.97543	5.11361	55.1673
7.81818	1.97543	5.11361	54.9698
7.91919	1.97543	5.11361	54.7713
8.0202	1.97543	5.11361	54.5721
8.12121	1.97543	5.11361	54.3724
8.22222	1.97543	5.11361	54.1721
8.32323	1.97543	5.11361	53.9715
8.42424	1.97543	5.11361	53.7706
8.52525	1.97543	5.11361	53.5695
8.62626	1.97543	5.11361	53.3682
8.72727	1.97543	5.11361	53.1667
8.82828	1.97543	5.11361	52.9651
8.92929	1.97543	5.11361	52.7634
9.0303	1.97543	5.11361	52.5616
9.13131	1.97543	5.11361	52.3598
9.23232	1.97543	5.11361	52.1579
9.33333	1.97543	5.11361	51.9559
9.43434	1.97543	5.11361	51.7539
9.53535	1.97543	5.11361	51.5519
9.63636	1.97543	5.11361	51.3498
9.73737	1.97543	5.11361	51.1476
9.83838	1.97543	5.11361	50.9454
9.93939	1.97543	5.11361	50.7431
10.0404	1.97543	5.11361	50.5407
10.1414	1.97543	5.11361	50.3382
10.2424	1.97543	5.11361	50.1356
10.3434	1.97543	5.11361	49.9328
10.4444	1.97543	5.11361	49.7297
10.5455	1.97543	5.11361	49.5264
10.6465	1.97543	5.11361	49.3226
10.7475	1.97543	5.11361	49.1185
10.8485	1.97543	5.11361	48.9137
10.9495	1.97543	5.11361	48.7082
11.0505	1.97543	5.11361	48.5018
11.1515	1.97543	5.11361	48.2943
11.2525	1.97543	5.11361	48.0853
11.3535	1.97543	5.11361	47.8746
11.4545	1.97543	5.11361	47.6618
11.5556	1.97543	5.11361	47.4464
11.6566	1.97543	5.11361	47.228
11.7576	1.97543	5.11361	47.0059
11.8586	1.97543	5.11361	46.7798
11.9596	1.97543	5.11361	46.5489
12.0606	1.97543	5.11361	46.3129
12.1616	1.97543	5.11361	46.0713
12.2626	1.97543	5.11361	45.8237
12.3636	1.97543	5.11361	45.5701
12.4646	1.97543	5.11361	45.3103
12.5657	1.97543	5.11361	45.0445
12.6667	1.97543	5.11361	44.773
12.7677	1.97543	5.11361	44.4961
12.8687	1.97543	5.11361	44.2143
12.9697	1.97543	5.11361	43.928
13.0707	1.97543	5.11361	43.6375
13.1717	1.97543	5.11361	43.3434
13.2727	1.97543	5.11361	43.0459
13.3737	1.97543	5.11361	42.7452
13.4747	1.97543	5.11361	42.4415
13.5758	1.97543	5.11361	42.1349
13.6768	1.97543	5.11361	41.8253
13.7778	1.97543	5.11361	41.5126
13.8788	1.97543	5.11361	41.1966
13.9798	1.97543	5.11361	40.8769
14.0808	1.97543	5.11361	40.5531
14.1818	1.97543	5.11361	40.2245
14.2828	1.97543	5.11361	39.8904
14.3838	1.97543	5.11361	39.55
14.4848	1.97543	5.11361	39.202
14.5859	1.97543	5.11361	38.845
14.6869	1.97543	5.11361	38.4774
14.7879	1.97543	5.11361	38.0971
14.8889	1.97543	5.11361	37.7015
14.9899	1.97543	5.11361	37.2874
15.0909	1.97543	5.11361	36.8511
15.1919	1.97543	5.11361	36.3877
15.2929	1.97543	5.11361	35.8914
15.3939	1.97543	5.11361	35.3547
15.4949	1.97543	5.11361	34.7686
15.596	1.97543	5.11361	34.1213
15.697	1.97543	5.11361	33.3977
15.798	1.97543	5.11361	32.5746
15.899	1.97543	5.11361	31.5926
16	1.97543	5.11361	-inf
6	1.98157	5.19788	57.8689
6.10101	1.98157	5.19788	57.7677
6.20202	1.98157	5.19788	57.6606
6.30303	1.98157	5.19788	57.5456
6.40404	1.98157	5.19788	57.421
6.50505	1.98157	5.19788	57.2864
6.60606	1.98157	5.19788	57.1418
6.70707	1.98157	5.19788	56.9879
6.80808	1.98157	5.19788	56.8257
6.90909	1.98157	5.19788	56.6564
7.0101	1.98157	5.19788	56.481
7.11111	1.98157	5.19788	56.3005
7.21212	1.98157	5.19788	56.1158
7.31313	1.98157	5.19788	55.9277
7.41414	1.98157	5.19788	55.7368
7.51515	1.98157	5.19788	55.5437
7.61616	1.98157	5.19788	55.3487
7.71717	1.98157	5.19788	55.1523
7.81818	1.98157	5.19788	54.9548
7.91919	1.98157	5.19788	54.7564
8.0202	1.98157	5.19788	54.5572
8.12121	1.98157	5.19788	54.3574
8.22222	1.98157	5.19788	54.1572
8.32323	1.98157	5.19788	53.9566
8.42424	1.98157	5.19788	53.7557
8.52525	1.98157	5.19788	53.5545
8.62626	1.98157	5.19788	53.3532
8.72727	1.98157	5.19788	53.1517
8.82828	1.98157	5.19788	52.9501
8.92929	1.98157	5.19788	52.7484
9.0303	1.98157	5.19788	52.5467
9.13131	1.98157	5.19788	52.3448
9.23232	1.98157	5.19788	52.1429
9.33333	1.98157	5.19788	51.941
9.43434	1.98157	5.19788	51.739
9.53535	1.98157	5.19788	51.5369
9.63636	1.98157	5.19788	51.3348
9.73737	1.98157	5.19788	51.1326
9.83838	1.98157	5.19788	50.9304
9.93939	1.98157	5.19788	50.7281
10.0404	1.98157	5.19788	50.5257
10.1414	1.98157	5.19788	50.3232
10.2424	1.98157	5.19788	50.1205
10.3434	1.98157	5.19788	49.9177
10.4444	1.98157	5.19788	49.7146
10.5455	1.98157	5.19788	49.5113
10.6465	1.98157	5.19788	49.3075
10.7475	1.98157	5.19788	49.1033
10.8485	1.98157	5.19788	48.8985
10.9495	1.98157	5.19788	48.693
11.0505	1.98157	5.19788	48.4865
11.1515	1.98157	5.19788	48.2789
11.2525	1.98157	5.19788	48.0698
11.3535	1.98157	5.19788	47.859
11.4545	1.98157	5.19788	47.6461
11.5556	1.98157	5.19788	47.4306
11.6566	1.98157	5.19788	47.212
11.7576	1.98157	5.19788	46.9898
11.8586	1.98157	5.19788	46.7634
11.9596	1.98157	5.19788	46.5324
12.0606	1.98157	5.19788	46.2961
12.1616	1.98157	5.19788	46.0543
12.2626	1.98157	5.19788	45.8065
12.3636	1.98157	5.19788	45.5526
12.4646	1.98157	5.19788	45.2926
12.5657	1.98157	5.19788	45.0266
12.6667	1.98157	5.19788	44.7549
12.7677	1.98157	5.19788	44.4778
12.8687	1.98157	5.19788	44.1959
12.9697	1.98157	5.19788	43.9094
13.0707	1.98157	5.19788	43.6188
13.1717	1.98157	5.19788	43.3246
13.2727	1.98157	5.19788	43.027
13.3737	1.98157	5.19788	42.7263
13.4747	1.98157	5.19788	42.4225
13.5758	1.98157	5.19788	42.1159
13.6768	1.98157	5.19788	41.8062
13.7778	1.98157	5.19788	41.4935
13.8788	1.98157	5.19788	41.1775
13.9798	1.98157	5.19788	40.8577
14.0808	1.98157	5.19788	40.5339
14.1818	1.98157	5.19788	40.2053
14.2828	1.98157	5.19788	39.8712
14.3838	1.98157	5.19788	39.5308
14.4848	1.98157	5.19788	39.1828
14.5859	1.98157	5.19788	38.8258
14.6869	1.98157	5.19788	38.4582
14.7879	1.98157	5.19788	38.0779
14.8889	1.98157	5.19788	37.6822
14.9899	1.98157	5.19788	37.2682
15.0909	1.98157	5.19788	36.8319
15.1919	1.98157	5.19788	36.3685
15.2929	1.98157	5.19788	35.8722
15.3939	1.98157	5.19788	35.3355
15.4949	1.98157	5.19788	34.7494
15.596	1.98157	5.19788	34.1021
15.697	1.98157	5.19788	33.3785
15.798	1.98157	5.19788	32.5553
15.899	1.98157	5.19788	31.5733
16	1.98157	5.19788	-inf
6	1.98771	5.27011	57.8501
6.10101	1.98771	5.27011	57.7486
6.20202	1.98771	5.27011	57.6412
6.30303	1.98771	5.27011	57.5259
6.40404	1.98771	5.27011	57.4012
6.50505	1.98771	5.27011	57.2664
6.60606	1.98771	5.27011	57.1216
6.70707	1.98771	5.27011	56.9677
6.80808	1.98771	5.27011	56.8054
6.90909	1.98771	5.27011	56.636
7.0101	1.98771	5.27011	56.4605
7.11111	1.98771	5.27011	56.28
7.21212	1.98771	5.27011	56.0953
7.31313	1.98771	5.27011	55.9072
7.41414	1.98771	5.27011	55.7162
7.51515	1.98771	5.27011	55.5231
7.61616	1.98771	5.27011	55.3282
7.71717	1.98771	5.27011	55.1318
7.81818	1.98771	5.27011	54.9342
7.91919	1.98771	5.27011	54.7358
8.0202	1.98771	5.27011	54.5366
8.12121	1.98771	5.27011	54.3368
8.22222	1.98771	5.27011	54.1366
8.32323	1.98771	5.27011	53.936
8.42424	1.98771	5.27011	53.7351
8.52525	1.98771	5.27011	53.5339
8.62626	1.98771	5.27011	53.3326
8.72727	1.98771	5.27011	53.1311
8.82828	1.98771	5.27011	52.9295
8.92929	1.98771	5.27011	52.7278
9.0303	1.98771	5.27011	52.5261
9.13131	1.98771	5.27011	52.3242
9.23232	1.98771	5.27011	52.1223
9.33333	1.98771	5.27011	51.9203
9.43434	1.98771	5.27011	51.7183
9.53535	1.98771	5.27011	51.5163
9.63636	1.98771	5.27011	51.3142
9.73737	1.98771	5.27011	51.112
9.83838	1.98771	5.27011	50.9098
9.93939	1.98771	5.27011	50.7075
10.0404	1.98771	5.27011	50.5051
10.1414	1.98771	5.27011	50.3026
10.2424	1.98771	5.27011	50.0999
10.3434	1.98771	5.27011	49.897
10.4444	1.98771	5.27011	49.6939
10.5455	1.98771	5.27011	49.4905
10.6465	1.98771	5.27011	49.2868
10.7475	1.98771	5.27011	49.0825
10.8485	1.98771	5.27011	48.8777
10.9495	1.98771	5.27011	48.6721
11.0505	1.98771	5.27011	48.4656
11.1515	1.98771	5.27011	48.2579
11.2525	1.98771	5.27011	48.0488
11.3535	1.98771	5.27011	47.8379
11.4545	1.98771	5.27011	47.6248
11.5556	1.98771	5.27011	47.4092
11.6566	1.98771	5.27011	47.1904
11.7576	1.98771	5.27011	46.9681
11.8586	1.98771	5.27011	46.7415
11.9596	1.98771	5.27011	46.5103
12.0606	1.98771	5.27011	46.2739
12.1616	1.98771	5.27011	46.0318
12.2626	1.98771	5.27011	45.7838
12.3636	1.98771	5.27011	45.5297
12.4646	1.98771	5.27011	45.2694
12.5657	1.98771	5.27011	45.0033
12.6667	1.98771	5.27011	44.7314
12.7677	1.98771	5.27011	44.4542
12.8687	1.98771	5.27011	44.1721
12.9697	1.98771	5.27011	43.8855
13.0707	1.98771	5.27011	43.5948
13.1717	1.98771	5.27011	43.3005
13.2727	1.98771	5.27011	43.0028
13.3737	1.98771	5.27011	42.702
13.4747	1.98771	5.27011	42.3983
13.5758	1.98771	5.27011	42.0916
13.6768	1.98771	5.27011	41.7819
13.7778	1.98771	5.27011	41.4691
13.8788	1.98771	5.27011	41.1531
13.9798	1.98771	5.27011	40.8333
14.0808	1.98771	5.27011	40.5095
14.1818	1.98771	5.27011	40.1809
14.2828	1.98771	5.27011	39.8468
14.3838	1.98771	5.27011	39.5063
14.4848	1.98771	5.27011	39.1583
14.5859	1.98771	5.27011	38.8013
14.6869	1.98771	5.27011	38.4337
14.7879	1.98771	5.27011	38.0534
14.8889	1.98771	5.27011	37.6578
14.9899	1.98771	5.27011	37.2437
15.0909	1.98771	5.27011	36.8074
15.1919	1.98771	5.27011	36.344
15.2929	1.98771	5.27011	35.8477
15.3939	1.98771	5.27011	35.3111
15.4949	1.98771	5.27011	34.7249
15.596	1.98771	5.27011	34.0777
15.697	1.98771	5.27011	33.354
15.798	1.98771	5.27011	32.5309
15.899	1.98771	5.27011	31.5489
16	1.98771	5.27011	-inf
6	1.99386	5.34191	57.8304
6.10101	1.99386	5.34191	57.7286
6.20202	1.99386	5.34191	57.621
6.30303	1.99386	5.34191	57.5055
6.40404	1.99386	5.34191	57.3806
6.50505	1.99386	5.34191	57.2456
6.60606	1.99386	5.34191	57.1008
6.70707	1.99386	5.34191	56.9467
6.80808	1.99386	5.34191	56.7844
6.90909	1.99386	5.34191	56.6149
7.0101	1.99386	5.34191	56.4394
7.11111	1.99386	5.34191	56.2588
7.21212	1.99386	5.34191	56.0741
7.31313	1.99386	5.34191	55.8859
7.41414	1.99386	5.34191	55.695
7.51515	1.99386	5.34191	55.5018
7.61616	1.99386	5.34191	55.3069
7.71717	1.99386	5.34191	55.1105
7.81818	1.99386	5.34191	54.9129
7.91919	1.99386	5.34191	54.7145
8.0202	1.99386	5.34191	54.5153
8.12121	1.99386	5.34191	54.3155
8.22222	1.99386	5.34191	54.1153
8.32323	1.99386	5.34191	53.9146
8.42424	1.99386	5.34191	53.7137
8.52525	1.99386	5.34191	53.5126
8.62626	1.99386	5.34191	53.3113
8.72727	1.99386	5.34191	53.1098
8.82828	1.99386	5.34191	52.9082
8.92929	1.99386	5.34191	52.7065
9.0303	1.99386	5.34191	52.5047
9.13131	1.99386	5.34191	52.3029
9.23232	1.99386	5.34191	52.101
9.33333	1.99386	5.34191	51.899
9.43434	1.99386	5.34191	51.697
9.53535	1.99386	5.34191	51.4949
9.63636	1.99386	5.34191	51.2928
9.73737	1.99386	5.34191	51.0907
9.83838	1.99386	5.34191	50.8884
9.93939	1.99386	5.34191	50.6861
10.0404	1.99386	5.34191	50.4837
10.1414	1.99386	5.34191	50.2812
10.2424	1.99386	5.34191	50.0785
10.3434	1.99386	5.34191	49.8756
10.4444	1.99386	5.34191	49.6725
10.5455	1.99386	5.34191	49.4691
10.6465	1.99386	5.34191	49.2653
10.7475	1.99386	5.34191	49.061
10.8485	1.99386	5.34191	48.8561
10.9495	1.99386	5.34191	48.6505
11.0505	1.99386	5.34191	48.4439
11.1515	1.99386	5.34191	48.2362
11.2525	1.99386	5.34191	48.0269
11.3535	1.99386	5.34191	47.816
11.4545	1.99386	5.34191	47.6028
11.5556	1.99386	5.34191	47.387
11.6566	1.99386	5.34191	47.1681
11.7576	1.99386	5.34191	46.9456
11.8586	1.99386	5.34191	46.7189
11.9596	1.99386	5.34191	46.4875
12.0606	1.99386	5.34191	46.2508
12.1616	1.99386	5.34191	46.0086
12.2626	1.99386	5.34191	45.7603
12.3636	1.99386	5.34191	45.506
12.4646	1.99386	5.34191	45.2456
12.5657	1.99386	5.34191	44.9792
12.6667	1.99386	5.34191	44.7072
12.7677	1.99386	5.34191	44.4298
12.8687	1.99386	5.34191	44.1476
12.9697	1.99386	5.34191	43.8609
13.0707	1.99386	5.34191	43.5701
13.1717	1.99386	5.34191	43.2757
13.2727	1.99386	5.34191	42.978
13.3737	1.99386	5.34191	42.6771
13.4747	1.99386	5.34191	42.3733
13.5758	1.99386	5.34191	42.0665
13.6768	1.99386	5.34191	41.7569
13.7778	1.99386	5.34191	41.4441
13.8788	1.99386	5.34191	41.128
13.9798	1.99386	5.34191	40.8082
14.0808	1.99386	5.34191	40.4844
14.1818	1.99386	5.34191	40.1558
14.2828	1.99386	5.34191	39.8217
14.3838	1.99386	5.34191	39.4812
14.4848	1.99386	5.34191	39.1332
14.5859	1.99386	5.34191	38.7762
14.6869	1.99386	5.34191	38.4086
14.7879	1.99386	5.34191	38.0282
14.8889	1.99386	5.34191	37.6326
14.9899	1.99386	5.34191	37.2186
15.0909	1.99386	5.34191	36.7823
15.1919	1.99386	5.34191	36.3189
15.2929	1.99386	5.34191	35.8225
15.3939	1.99386	5.34191	35.2859
15.4949	1.99386	5.34191	34.6998
15.596	1.99386	5.34191	34.0525
15.697	1.99386	5.34191	33.3288
15.798	1.99386	5.34191	32.5057
15.899	1.99386	5.34191	31.5237
16	1.99386	5.34191	-inf
6	2	5.42504	-inf
6.10101	2	5.42504	-inf
6.20202	2	5.42504	-inf
6.30303	2	5.42504	-inf
6.40404	2	5.42504	-inf
6.50505	2	5.42504	-inf
6.60606	2	5.42504	-inf
6.70707	2	5.42504	-inf
6.80808	2	5.42504	-inf
6.90909	2	5.42504	-inf
7.0101	2	5.42504	-inf
7.11111	2	5.42504	-inf
7.21212	2	5.42504	-inf
7.31313	2	5.42504	-inf
7.41414	2	5.42504	-inf
7.51515	2	5.42504	-inf
7.61616	2	5.42504	-inf
7.71717	2	5.42504	-inf
7.81818	2	5.42504	-inf
7.91919	2	5.42504	-inf
8.0202	2	5.42504	-inf
8.12121	2	5.42504	-inf
8.22222	2	5.42504	-inf
8.32323	2	5.42504	-inf
8.42424	2	5.42504	-inf
8.52525	2	5.42504	-inf
8.62626	2	5.42504	-inf
8.72727	2	5.42504	-inf
8.82828	2	5.42504	-inf
8.92929	2	5.42504	-inf
9.0303	2	5.42504	-inf
9.13131	2	5.42504	-inf
9.23232	2	5.42504	-inf
9.33333	2	5.42504	-inf
9.43434	2	5.42504	-inf
9.53535	2	5.42504	-inf
9.63636	2	5.42504	-inf
9.73737	2	5.42504	-inf
9.83838	2	5.42504	-inf
9.93939	2	5.42504	-inf
10.0404	2	5.42504	-inf
10.1414	2	5.42504	-inf
10.2424	2	5.42504	-inf
10.3434	2	5.42504	-inf
10.4444	2	5.42504	-inf
10.5455	2	5.42504	-inf
10.6465	2	5.42504	-inf
10.7475	2	5.42504	-inf
10.8485	2	5.42504	-inf
10.9495	2	5.42504	-inf
11.0505	2	5.42504	-inf
11.1515	2	5.42504	-inf
11.2525	2	5.42504	-inf
11.3535	2	5.42504	-inf
11.4545	2	5.42504	-inf
11.5556	2	5.42504	-inf
11.6566	2	5.42504	-inf
11.7576	2	5.42504	-inf
11.8586	2	5.42504	-inf
11.9596	2	5.42504	-inf
12.0606	2	5.42504	-inf
12.1616	2	5.42504	-inf
12.2626	2	5.42504	-inf
12.3636	2	5.42504	-inf
12.4646	2	5.42504	-inf
12.5657	2	5.42504	-inf
12.6667	2	5.42504	-inf
12.7677	2	5.42504	-inf
12.8687	2	5.42504	-inf
12.9697	2	5.42504	-inf
13.0707	2	5.42504	-inf
13.1717	2	5.42504	-inf
13.2727	2	5.42504	-inf
13.3737	2	5.42504	-inf
13.4747	2	5.42504	-inf
13.5758	2	5.42504	-inf
13.6768	2	5.42504	-inf
13.7778	2	5.42504	-inf
13.8788	2	5.42504	-inf
13.9798	2	5.42504	-inf
14.0808	2	5.42504	-inf
14.1818	2	5.42504	-inf
14.2828	2	5.42504	-inf
14.3838	2	5.42504	-inf
14.4848	2	5.42504	-inf
14.5859	2	5.42504	-inf
14.6869	2	5.42504	-inf
14.7879	2	5.42504	-inf
14.8889	2	5.42504	-inf
14.9899	2	5.42504	-inf
15.0909	2	5.42504	-inf
15.1919	2	5.42504	-inf
15.2929	2	5.42504	-inf
15.3939	2	5.42504	-inf
15.4949	2	5.42504	-inf
15.596	2	5.42504	-inf
15.697	2	5.42504	-inf
15.798	2	5.42504	-inf
15.899	2	5.42504	-inf
16	2	5.42504	-inf
