log(E / eV)	log(z / pc)	t / yr	 logQ
6	1	0	56.9633
6.37931	1	0	57.4451
6.75862	1	0	57.2106
7.13793	1	0	56.6714
7.51724	1	0	56.0045
7.89655	1	0	55.2842
8.27586	1	0	54.5415
8.65517	1	0	53.7896
9.03448	1	0	53.0338
9.41379	1	0	52.2763
9.7931	1	0	51.5181
10.1724	1	0	50.7598
10.5517	1	0	49.9988
10.931	1	0	49.2056
11.3103	1	0	48.3269
11.6897	1	0	47.3436
12.069	1	0	46.2794
12.4483	1	0	45.1644
12.8276	1	0	44.0144
13.2069	1	0	42.8281
13.5862	1	0	41.5867
13.9655	1	0	40.2462
14.3448	1	0	38.7135
14.7241	1	0	36.7659
15.1034	1	0	33.7759
15.4828	1	0	28.2107
15.8621	1	0	16.4693
16.2414	1	0	-10.0642
16.6207	1	0	-72.0252
17	1	0	-inf
6	1.03448	0.40007	56.8388
6.37931	1.03448	0.40007	57.1118
6.75862	1.03448	0.40007	56.8376
7.13793	1.03448	0.40007	56.2875
7.51724	1.03448	0.40007	55.6168
7.89655	1.03448	0.40007	54.895
8.27586	1.03448	0.40007	54.1517
8.65517	1.03448	0.40007	53.3995
9.03448	1.03448	0.40007	52.6436
9.41379	1.03448	0.40007	51.886
9.7931	1.03448	0.40007	51.1207
10.1724	1.03448	0.40007	50.3143
10.5517	1.03448	0.40007	49.4197
10.931	1.03448	0.40007	48.426
11.3103	1.03448	0.40007	47.3598
11.6897	1.03448	0.40007	46.2521
12.069	1.03448	0.40007	45.1218
12.4483	1.03448	0.40007	43.9758
12.8276	1.03448	0.40007	42.8123
13.2069	1.03448	0.40007	41.6203
13.5862	1.03448	0.40007	40.3765
13.9655	1.03448	0.40007	39.035
14.3448	1.03448	0.40007	37.502
14.7241	1.03448	0.40007	35.5543
15.1034	1.03448	0.40007	32.5642
15.4828	1.03448	0.40007	26.999
15.8621	1.03448	0.40007	15.2576
16.2414	1.03448	0.40007	-11.2759
16.6207	1.03448	0.40007	-73.2369
17	1.03448	0.40007	-inf
6	1.06897	0.824155	56.754
6.37931	1.06897	0.824155	57.0375
6.75862	1.06897	0.824155	56.7657
7.13793	1.06897	0.824155	56.2162
7.51724	1.06897	0.824155	55.5457
7.89655	1.06897	0.824155	54.824
8.27586	1.06897	0.824155	54.0808
8.65517	1.06897	0.824155	53.3286
9.03448	1.06897	0.824155	52.5727
9.41379	1.06897	0.824155	51.8151
9.7931	1.06897	0.824155	51.0496
10.1724	1.06897	0.824155	50.2421
10.5517	1.06897	0.824155	49.3456
10.931	1.06897	0.824155	48.3502
11.3103	1.06897	0.824155	47.2829
11.6897	1.06897	0.824155	46.1746
12.069	1.06897	0.824155	45.044
12.4483	1.06897	0.824155	43.898
12.8276	1.06897	0.824155	42.7344
13.2069	1.06897	0.824155	41.5423
13.5862	1.06897	0.824155	40.2986
13.9655	1.06897	0.824155	38.9571
14.3448	1.06897	0.824155	37.4241
14.7241	1.06897	0.824155	35.4763
15.1034	1.06897	0.824155	32.4862
15.4828	1.06897	0.824155	26.921
15.8621	1.06897	0.824155	15.1796
16.2414	1.06897	0.824155	-11.3539
16.6207	1.06897	0.824155	-73.3149
17	1.06897	0.824155	-inf
6	1.10345	1.27409	56.6696
6.37931	1.10345	1.27409	56.9634
6.75862	1.10345	1.27409	56.6937
7.13793	1.10345	1.27409	56.1448
7.51724	1.10345	1.27409	55.4745
7.89655	1.10345	1.27409	54.7529
8.27586	1.10345	1.27409	54.0097
8.65517	1.10345	1.27409	53.2576
9.03448	1.10345	1.27409	52.5017
9.41379	1.10345	1.27409	51.744
9.7931	1.10345	1.27409	50.9784
10.1724	1.10345	1.27409	50.1698
10.5517	1.10345	1.27409	49.2715
10.931	1.10345	1.27409	48.2743
11.3103	1.10345	1.27409	47.2059
11.6897	1.10345	1.27409	46.0971
12.069	1.10345	1.27409	44.9663
12.4483	1.10345	1.27409	43.8201
12.8276	1.10345	1.27409	42.6565
13.2069	1.10345	1.27409	41.4644
13.5862	1.10345	1.27409	40.2207
13.9655	1.10345	1.27409	38.8792
14.3448	1.10345	1.27409	37.3462
14.7241	1.10345	1.27409	35.3984
15.1034	1.10345	1.27409	32.4083
15.4828	1.10345	1.27409	26.8431
15.8621	1.10345	1.27409	15.1017
16.2414	1.10345	1.27409	-11.4318
16.6207	1.10345	1.27409	-73.3928
17	1.10345	1.27409	-inf
6	1.13793	1.75186	56.5855
6.37931	1.13793	1.75186	56.8892
6.75862	1.13793	1.75186	56.6217
7.13793	1.13793	1.75186	56.0734
7.51724	1.13793	1.75186	55.4033
7.89655	1.13793	1.75186	54.6817
8.27586	1.13793	1.75186	53.9386
8.65517	1.13793	1.75186	53.1865
9.03448	1.13793	1.75186	52.4305
9.41379	1.13793	1.75186	51.6729
9.7931	1.13793	1.75186	50.9071
10.1724	1.13793	1.75186	50.0975
10.5517	1.13793	1.75186	49.1972
10.931	1.13793	1.75186	48.1984
11.3103	1.13793	1.75186	47.129
11.6897	1.13793	1.75186	46.0196
12.069	1.13793	1.75186	44.8886
12.4483	1.13793	1.75186	43.7423
12.8276	1.13793	1.75186	42.5786
13.2069	1.13793	1.75186	41.3866
13.5862	1.13793	1.75186	40.1428
13.9655	1.13793	1.75186	38.8013
14.3448	1.13793	1.75186	37.2683
14.7241	1.13793	1.75186	35.3205
15.1034	1.13793	1.75186	32.3305
15.4828	1.13793	1.75186	26.7653
15.8621	1.13793	1.75186	15.0239
16.2414	1.13793	1.75186	-11.5097
16.6207	1.13793	1.75186	-73.4707
17	1.13793	1.75186	-inf
6	1.17241	2.25957	56.5018
6.37931	1.17241	2.25957	56.8152
6.75862	1.17241	2.25957	56.5496
7.13793	1.17241	2.25957	56.0019
7.51724	1.17241	2.25957	55.332
7.89655	1.17241	2.25957	54.6105
8.27586	1.17241	2.25957	53.8674
8.65517	1.17241	2.25957	53.1153
9.03448	1.17241	2.25957	52.3594
9.41379	1.17241	2.25957	51.6018
9.7931	1.17241	2.25957	50.8357
10.1724	1.17241	2.25957	50.025
10.5517	1.17241	2.25957	49.123
10.931	1.17241	2.25957	48.1225
11.3103	1.17241	2.25957	47.0521
11.6897	1.17241	2.25957	45.9422
12.069	1.17241	2.25957	44.8109
12.4483	1.17241	2.25957	43.6646
12.8276	1.17241	2.25957	42.5009
13.2069	1.17241	2.25957	41.3088
13.5862	1.17241	2.25957	40.065
13.9655	1.17241	2.25957	38.7235
14.3448	1.17241	2.25957	37.1905
14.7241	1.17241	2.25957	35.2427
15.1034	1.17241	2.25957	32.2527
15.4828	1.17241	2.25957	26.6874
15.8621	1.17241	2.25957	14.946
16.2414	1.17241	2.25957	-11.5875
16.6207	1.17241	2.25957	-73.5485
17	1.17241	2.25957	-inf
6	1.2069	2.79949	56.4185
6.37931	1.2069	2.79949	56.7412
6.75862	1.2069	2.79949	56.4775
7.13793	1.2069	2.79949	55.9303
7.51724	1.2069	2.79949	55.2606
7.89655	1.2069	2.79949	54.5392
8.27586	1.2069	2.79949	53.7961
8.65517	1.2069	2.79949	53.044
9.03448	1.2069	2.79949	52.2881
9.41379	1.2069	2.79949	51.5305
9.7931	1.2069	2.79949	50.7642
10.1724	1.2069	2.79949	49.9525
10.5517	1.2069	2.79949	49.0486
10.931	1.2069	2.79949	48.0466
11.3103	1.2069	2.79949	46.9752
11.6897	1.2069	2.79949	45.8648
12.069	1.2069	2.79949	44.7333
12.4483	1.2069	2.79949	43.5869
12.8276	1.2069	2.79949	42.4231
13.2069	1.2069	2.79949	41.231
13.5862	1.2069	2.79949	39.9872
13.9655	1.2069	2.79949	38.6457
14.3448	1.2069	2.79949	37.1127
14.7241	1.2069	2.79949	35.165
15.1034	1.2069	2.79949	32.1749
15.4828	1.2069	2.79949	26.6097
15.8621	1.2069	2.79949	14.8683
16.2414	1.2069	2.79949	-11.6652
16.6207	1.2069	2.79949	-73.6263
17	1.2069	2.79949	-inf
6	1.24138	3.37405	56.3356
6.37931	1.24138	3.37405	56.6672
6.75862	1.24138	3.37405	56.4053
7.13793	1.24138	3.37405	55.8587
7.51724	1.24138	3.37405	55.1891
7.89655	1.24138	3.37405	54.4678
8.27586	1.24138	3.37405	53.7248
8.65517	1.24138	3.37405	52.9726
9.03448	1.24138	3.37405	52.2167
9.41379	1.24138	3.37405	51.4592
9.7931	1.24138	3.37405	50.6927
10.1724	1.24138	3.37405	49.8798
10.5517	1.24138	3.37405	48.9742
10.931	1.24138	3.37405	47.9707
11.3103	1.24138	3.37405	46.8983
11.6897	1.24138	3.37405	45.7875
12.069	1.24138	3.37405	44.6557
12.4483	1.24138	3.37405	43.5092
12.8276	1.24138	3.37405	42.3454
13.2069	1.24138	3.37405	41.1533
13.5862	1.24138	3.37405	39.9095
13.9655	1.24138	3.37405	38.568
14.3448	1.24138	3.37405	37.035
14.7241	1.24138	3.37405	35.0872
15.1034	1.24138	3.37405	32.0971
15.4828	1.24138	3.37405	26.5319
15.8621	1.24138	3.37405	14.7905
16.2414	1.24138	3.37405	-11.743
16.6207	1.24138	3.37405	-73.704
17	1.24138	3.37405	-inf
6	1.27586	3.98586	56.253
6.37931	1.27586	3.98586	56.5933
6.75862	1.27586	3.98586	56.3332
7.13793	1.27586	3.98586	55.787
7.51724	1.27586	3.98586	55.1176
7.89655	1.27586	3.98586	54.3963
8.27586	1.27586	3.98586	53.6533
8.65517	1.27586	3.98586	52.9012
9.03448	1.27586	3.98586	52.1453
9.41379	1.27586	3.98586	51.3878
9.7931	1.27586	3.98586	50.621
10.1724	1.27586	3.98586	49.8071
10.5517	1.27586	3.98586	48.8998
10.931	1.27586	3.98586	47.8947
11.3103	1.27586	3.98586	46.8214
11.6897	1.27586	3.98586	45.7101
12.069	1.27586	3.98586	44.5782
12.4483	1.27586	3.98586	43.4316
12.8276	1.27586	3.98586	42.2677
13.2069	1.27586	3.98586	41.0756
13.5862	1.27586	3.98586	39.8318
13.9655	1.27586	3.98586	38.4903
14.3448	1.27586	3.98586	36.9573
14.7241	1.27586	3.98586	35.0095
15.1034	1.27586	3.98586	32.0195
15.4828	1.27586	3.98586	26.4542
15.8621	1.27586	3.98586	14.7128
16.2414	1.27586	3.98586	-11.8207
16.6207	1.27586	3.98586	-73.7817
17	1.27586	3.98586	-inf
6	1.31034	4.63773	56.1709
6.37931	1.31034	4.63773	56.5195
6.75862	1.31034	4.63773	56.261
7.13793	1.31034	4.63773	55.7152
7.51724	1.31034	4.63773	55.046
7.89655	1.31034	4.63773	54.3248
8.27586	1.31034	4.63773	53.5818
8.65517	1.31034	4.63773	52.8298
9.03448	1.31034	4.63773	52.0739
9.41379	1.31034	4.63773	51.3163
9.7931	1.31034	4.63773	50.5493
10.1724	1.31034	4.63773	49.7343
10.5517	1.31034	4.63773	48.8253
10.931	1.31034	4.63773	47.8187
11.3103	1.31034	4.63773	46.7446
11.6897	1.31034	4.63773	45.6328
12.069	1.31034	4.63773	44.5007
12.4483	1.31034	4.63773	43.354
12.8276	1.31034	4.63773	42.1901
13.2069	1.31034	4.63773	40.998
13.5862	1.31034	4.63773	39.7542
13.9655	1.31034	4.63773	38.4127
14.3448	1.31034	4.63773	36.8797
14.7241	1.31034	4.63773	34.9319
15.1034	1.31034	4.63773	31.9418
15.4828	1.31034	4.63773	26.3766
15.8621	1.31034	4.63773	14.6352
16.2414	1.31034	4.63773	-11.8983
16.6207	1.31034	4.63773	-73.8593
17	1.31034	4.63773	-inf
6	1.34483	5.33267	56.0891
6.37931	1.34483	5.33267	56.4457
6.75862	1.34483	5.33267	56.1888
7.13793	1.34483	5.33267	55.6435
7.51724	1.34483	5.33267	54.9744
7.89655	1.34483	5.33267	54.2533
8.27586	1.34483	5.33267	53.5103
8.65517	1.34483	5.33267	52.7582
9.03448	1.34483	5.33267	52.0023
9.41379	1.34483	5.33267	51.2448
9.7931	1.34483	5.33267	50.4776
10.1724	1.34483	5.33267	49.6615
10.5517	1.34483	5.33267	48.7507
10.931	1.34483	5.33267	47.7427
11.3103	1.34483	5.33267	46.6677
11.6897	1.34483	5.33267	45.5556
12.069	1.34483	5.33267	44.4232
12.4483	1.34483	5.33267	43.2765
12.8276	1.34483	5.33267	42.1125
13.2069	1.34483	5.33267	40.9204
13.5862	1.34483	5.33267	39.6766
13.9655	1.34483	5.33267	38.3351
14.3448	1.34483	5.33267	36.8021
14.7241	1.34483	5.33267	34.8543
15.1034	1.34483	5.33267	31.8642
15.4828	1.34483	5.33267	26.299
15.8621	1.34483	5.33267	14.5576
16.2414	1.34483	5.33267	-11.9759
16.6207	1.34483	5.33267	-73.9369
17	1.34483	5.33267	-inf
6	1.37931	6.07389	56.0077
6.37931	1.37931	6.07389	56.372
6.75862	1.37931	6.07389	56.1165
7.13793	1.37931	6.07389	55.5716
7.51724	1.37931	6.07389	54.9027
7.89655	1.37931	6.07389	54.1816
8.27586	1.37931	6.07389	53.4387
8.65517	1.37931	6.07389	52.6866
9.03448	1.37931	6.07389	51.9307
9.41379	1.37931	6.07389	51.1732
9.7931	1.37931	6.07389	50.4057
10.1724	1.37931	6.07389	49.5885
10.5517	1.37931	6.07389	48.6761
10.931	1.37931	6.07389	47.6667
11.3103	1.37931	6.07389	46.5909
11.6897	1.37931	6.07389	45.4783
12.069	1.37931	6.07389	44.3458
12.4483	1.37931	6.07389	43.199
12.8276	1.37931	6.07389	42.035
13.2069	1.37931	6.07389	40.8429
13.5862	1.37931	6.07389	39.599
13.9655	1.37931	6.07389	38.2575
14.3448	1.37931	6.07389	36.7245
14.7241	1.37931	6.07389	34.7767
15.1034	1.37931	6.07389	31.7867
15.4828	1.37931	6.07389	26.2214
15.8621	1.37931	6.07389	14.48
16.2414	1.37931	6.07389	-12.0535
16.6207	1.37931	6.07389	-74.0145
17	1.37931	6.07389	-inf
6	1.41379	6.86487	55.9266
6.37931	1.41379	6.86487	56.2983
6.75862	1.41379	6.86487	56.0443
7.13793	1.41379	6.86487	55.4998
7.51724	1.41379	6.86487	54.831
7.89655	1.41379	6.86487	54.11
8.27586	1.41379	6.86487	53.367
8.65517	1.41379	6.86487	52.615
9.03448	1.41379	6.86487	51.8591
9.41379	1.41379	6.86487	51.1016
9.7931	1.41379	6.86487	50.3338
10.1724	1.41379	6.86487	49.5155
10.5517	1.41379	6.86487	48.6015
10.931	1.41379	6.86487	47.5907
11.3103	1.41379	6.86487	46.5141
11.6897	1.41379	6.86487	45.4011
12.069	1.41379	6.86487	44.2684
12.4483	1.41379	6.86487	43.1215
12.8276	1.41379	6.86487	41.9575
13.2069	1.41379	6.86487	40.7653
13.5862	1.41379	6.86487	39.5215
13.9655	1.41379	6.86487	38.18
14.3448	1.41379	6.86487	36.647
14.7241	1.41379	6.86487	34.6992
15.1034	1.41379	6.86487	31.7091
15.4828	1.41379	6.86487	26.1439
15.8621	1.41379	6.86487	14.4025
16.2414	1.41379	6.86487	-12.131
16.6207	1.41379	6.86487	-74.092
17	1.41379	6.86487	-inf
6	1.44828	7.70931	55.846
6.37931	1.44828	7.70931	56.2247
6.75862	1.44828	7.70931	55.972
7.13793	1.44828	7.70931	55.4279
7.51724	1.44828	7.70931	54.7592
7.89655	1.44828	7.70931	54.0382
8.27586	1.44828	7.70931	53.2954
8.65517	1.44828	7.70931	52.5433
9.03448	1.44828	7.70931	51.7874
9.41379	1.44828	7.70931	51.0299
9.7931	1.44828	7.70931	50.2619
10.1724	1.44828	7.70931	49.4425
10.5517	1.44828	7.70931	48.5268
10.931	1.44828	7.70931	47.5147
11.3103	1.44828	7.70931	46.4373
11.6897	1.44828	7.70931	45.324
12.069	1.44828	7.70931	44.1911
12.4483	1.44828	7.70931	43.0441
12.8276	1.44828	7.70931	41.8801
13.2069	1.44828	7.70931	40.6879
13.5862	1.44828	7.70931	39.444
13.9655	1.44828	7.70931	38.1025
14.3448	1.44828	7.70931	36.5695
14.7241	1.44828	7.70931	34.6217
15.1034	1.44828	7.70931	31.6317
15.4828	1.44828	7.70931	26.0664
15.8621	1.44828	7.70931	14.3251
16.2414	1.44828	7.70931	-12.2085
16.6207	1.44828	7.70931	-74.1695
17	1.44828	7.70931	-inf
6	1.48276	8.61123	55.7657
6.37931	1.48276	8.61123	56.1512
6.75862	1.48276	8.61123	55.8997
7.13793	1.48276	8.61123	55.356
7.51724	1.48276	8.61123	54.6874
7.89655	1.48276	8.61123	53.9665
8.27586	1.48276	8.61123	53.2236
8.65517	1.48276	8.61123	52.4716
9.03448	1.48276	8.61123	51.7157
9.41379	1.48276	8.61123	50.9582
9.7931	1.48276	8.61123	50.1899
10.1724	1.48276	8.61123	49.3694
10.5517	1.48276	8.61123	48.4521
10.931	1.48276	8.61123	47.4387
11.3103	1.48276	8.61123	46.3605
11.6897	1.48276	8.61123	45.2468
12.069	1.48276	8.61123	44.1138
12.4483	1.48276	8.61123	42.9667
12.8276	1.48276	8.61123	41.8027
13.2069	1.48276	8.61123	40.6105
13.5862	1.48276	8.61123	39.3666
13.9655	1.48276	8.61123	38.0251
14.3448	1.48276	8.61123	36.4921
14.7241	1.48276	8.61123	34.5443
15.1034	1.48276	8.61123	31.5542
15.4828	1.48276	8.61123	25.989
15.8621	1.48276	8.61123	14.2476
16.2414	1.48276	8.61123	-12.2859
16.6207	1.48276	8.61123	-74.2469
17	1.48276	8.61123	-inf
6	1.51724	9.57489	55.6857
6.37931	1.51724	9.57489	56.0777
6.75862	1.51724	9.57489	55.8275
7.13793	1.51724	9.57489	55.284
7.51724	1.51724	9.57489	54.6156
7.89655	1.51724	9.57489	53.8947
8.27586	1.51724	9.57489	53.1518
8.65517	1.51724	9.57489	52.3998
9.03448	1.51724	9.57489	51.6439
9.41379	1.51724	9.57489	50.8864
9.7931	1.51724	9.57489	50.1178
10.1724	1.51724	9.57489	49.2962
10.5517	1.51724	9.57489	48.3774
10.931	1.51724	9.57489	47.3627
11.3103	1.51724	9.57489	46.2838
11.6897	1.51724	9.57489	45.1697
12.069	1.51724	9.57489	44.0365
12.4483	1.51724	9.57489	42.8894
12.8276	1.51724	9.57489	41.7253
13.2069	1.51724	9.57489	40.5331
13.5862	1.51724	9.57489	39.2892
13.9655	1.51724	9.57489	37.9477
14.3448	1.51724	9.57489	36.4147
14.7241	1.51724	9.57489	34.4669
15.1034	1.51724	9.57489	31.4768
15.4828	1.51724	9.57489	25.9116
15.8621	1.51724	9.57489	14.1702
16.2414	1.51724	9.57489	-12.3633
16.6207	1.51724	9.57489	-74.3243
17	1.51724	9.57489	-inf
6	1.55172	10.6049	55.6061
6.37931	1.55172	10.6049	56.0042
6.75862	1.55172	10.6049	55.7552
7.13793	1.55172	10.6049	55.212
7.51724	1.55172	10.6049	54.5437
7.89655	1.55172	10.6049	53.8228
8.27586	1.55172	10.6049	53.08
8.65517	1.55172	10.6049	52.328
9.03448	1.55172	10.6049	51.5721
9.41379	1.55172	10.6049	50.8146
9.7931	1.55172	10.6049	50.0457
10.1724	1.55172	10.6049	49.223
10.5517	1.55172	10.6049	48.3026
10.931	1.55172	10.6049	47.2867
11.3103	1.55172	10.6049	46.2071
11.6897	1.55172	10.6049	45.0926
12.069	1.55172	10.6049	43.9593
12.4483	1.55172	10.6049	42.812
12.8276	1.55172	10.6049	41.6479
13.2069	1.55172	10.6049	40.4557
13.5862	1.55172	10.6049	39.2119
13.9655	1.55172	10.6049	37.8704
14.3448	1.55172	10.6049	36.3373
14.7241	1.55172	10.6049	34.3896
15.1034	1.55172	10.6049	31.3995
15.4828	1.55172	10.6049	25.8343
15.8621	1.55172	10.6049	14.0929
16.2414	1.55172	10.6049	-12.4406
16.6207	1.55172	10.6049	-74.4017
17	1.55172	10.6049	-inf
6	1.58621	11.7062	55.5268
6.37931	1.58621	11.7062	55.9309
6.75862	1.58621	11.7062	55.6828
7.13793	1.58621	11.7062	55.14
7.51724	1.58621	11.7062	54.4718
7.89655	1.58621	11.7062	53.751
8.27586	1.58621	11.7062	53.0081
8.65517	1.58621	11.7062	52.2561
9.03448	1.58621	11.7062	51.5003
9.41379	1.58621	11.7062	50.7427
9.7931	1.58621	11.7062	49.9736
10.1724	1.58621	11.7062	49.1497
10.5517	1.58621	11.7062	48.2278
10.931	1.58621	11.7062	47.2107
11.3103	1.58621	11.7062	46.1304
11.6897	1.58621	11.7062	45.0156
12.069	1.58621	11.7062	43.8821
12.4483	1.58621	11.7062	42.7348
12.8276	1.58621	11.7062	41.5707
13.2069	1.58621	11.7062	40.3784
13.5862	1.58621	11.7062	39.1346
13.9655	1.58621	11.7062	37.793
14.3448	1.58621	11.7062	36.26
14.7241	1.58621	11.7062	34.3122
15.1034	1.58621	11.7062	31.3222
15.4828	1.58621	11.7062	25.757
15.8621	1.58621	11.7062	14.0156
16.2414	1.58621	11.7062	-12.518
16.6207	1.58621	11.7062	-74.479
17	1.58621	11.7062	-inf
6	1.62069	12.8841	55.4478
6.37931	1.62069	12.8841	55.8575
6.75862	1.62069	12.8841	55.6105
7.13793	1.62069	12.8841	55.068
7.51724	1.62069	12.8841	54.3999
7.89655	1.62069	12.8841	53.6791
8.27586	1.62069	12.8841	52.9363
8.65517	1.62069	12.8841	52.1842
9.03448	1.62069	12.8841	51.4284
9.41379	1.62069	12.8841	50.6708
9.7931	1.62069	12.8841	49.9014
10.1724	1.62069	12.8841	49.0764
10.5517	1.62069	12.8841	48.153
10.931	1.62069	12.8841	47.1347
11.3103	1.62069	12.8841	46.0537
11.6897	1.62069	12.8841	44.9386
12.069	1.62069	12.8841	43.8049
12.4483	1.62069	12.8841	42.6576
12.8276	1.62069	12.8841	41.4934
13.2069	1.62069	12.8841	40.3012
13.5862	1.62069	12.8841	39.0573
13.9655	1.62069	12.8841	37.7158
14.3448	1.62069	12.8841	36.1827
14.7241	1.62069	12.8841	34.235
15.1034	1.62069	12.8841	31.2449
15.4828	1.62069	12.8841	25.6797
15.8621	1.62069	12.8841	13.9383
16.2414	1.62069	12.8841	-12.5952
16.6207	1.62069	12.8841	-74.5562
17	1.62069	12.8841	-inf
6	1.65517	14.1443	55.3692
6.37931	1.65517	14.1443	55.7842
6.75862	1.65517	14.1443	55.5382
7.13793	1.65517	14.1443	54.9959
7.51724	1.65517	14.1443	54.3279
7.89655	1.65517	14.1443	53.6071
8.27586	1.65517	14.1443	52.8643
8.65517	1.65517	14.1443	52.1123
9.03448	1.65517	14.1443	51.3565
9.41379	1.65517	14.1443	50.5989
9.7931	1.65517	14.1443	49.8292
10.1724	1.65517	14.1443	49.0031
10.5517	1.65517	14.1443	48.0782
10.931	1.65517	14.1443	47.0587
11.3103	1.65517	14.1443	45.977
11.6897	1.65517	14.1443	44.8616
12.069	1.65517	14.1443	43.7278
12.4483	1.65517	14.1443	42.5804
12.8276	1.65517	14.1443	41.4162
13.2069	1.65517	14.1443	40.2239
13.5862	1.65517	14.1443	38.9801
13.9655	1.65517	14.1443	37.6385
14.3448	1.65517	14.1443	36.1055
14.7241	1.65517	14.1443	34.1577
15.1034	1.65517	14.1443	31.1677
15.4828	1.65517	14.1443	25.6024
15.8621	1.65517	14.1443	13.8611
16.2414	1.65517	14.1443	-12.6725
16.6207	1.65517	14.1443	-74.6335
17	1.65517	14.1443	-inf
6	1.68966	15.4929	55.2908
6.37931	1.68966	15.4929	55.711
6.75862	1.68966	15.4929	55.4659
7.13793	1.68966	15.4929	54.9238
7.51724	1.68966	15.4929	54.2559
7.89655	1.68966	15.4929	53.5352
8.27586	1.68966	15.4929	52.7924
8.65517	1.68966	15.4929	52.0404
9.03448	1.68966	15.4929	51.2845
9.41379	1.68966	15.4929	50.527
9.7931	1.68966	15.4929	49.7569
10.1724	1.68966	15.4929	48.9297
10.5517	1.68966	15.4929	48.0034
10.931	1.68966	15.4929	46.9827
11.3103	1.68966	15.4929	45.9004
11.6897	1.68966	15.4929	44.7846
12.069	1.68966	15.4929	43.6507
12.4483	1.68966	15.4929	42.5032
12.8276	1.68966	15.4929	41.339
13.2069	1.68966	15.4929	40.1467
13.5862	1.68966	15.4929	38.9029
13.9655	1.68966	15.4929	37.5613
14.3448	1.68966	15.4929	36.0283
14.7241	1.68966	15.4929	34.0805
15.1034	1.68966	15.4929	31.0905
15.4828	1.68966	15.4929	25.5252
15.8621	1.68966	15.4929	13.7839
16.2414	1.68966	15.4929	-12.7497
16.6207	1.68966	15.4929	-74.7107
17	1.68966	15.4929	-inf
6	1.72414	16.9365	55.2128
6.37931	1.72414	16.9365	55.6378
6.75862	1.72414	16.9365	55.3935
7.13793	1.72414	16.9365	54.8517
7.51724	1.72414	16.9365	54.1839
7.89655	1.72414	16.9365	53.4632
8.27586	1.72414	16.9365	52.7204
8.65517	1.72414	16.9365	51.9684
9.03448	1.72414	16.9365	51.2126
9.41379	1.72414	16.9365	50.455
9.7931	1.72414	16.9365	49.6846
10.1724	1.72414	16.9365	48.8563
10.5517	1.72414	16.9365	47.9285
10.931	1.72414	16.9365	46.9068
11.3103	1.72414	16.9365	45.8238
11.6897	1.72414	16.9365	44.7077
12.069	1.72414	16.9365	43.5736
12.4483	1.72414	16.9365	42.4261
12.8276	1.72414	16.9365	41.2619
13.2069	1.72414	16.9365	40.0696
13.5862	1.72414	16.9365	38.8257
13.9655	1.72414	16.9365	37.4842
14.3448	1.72414	16.9365	35.9512
14.7241	1.72414	16.9365	34.0034
15.1034	1.72414	16.9365	31.0133
15.4828	1.72414	16.9365	25.4481
15.8621	1.72414	16.9365	13.7067
16.2414	1.72414	16.9365	-12.8268
16.6207	1.72414	16.9365	-74.7878
17	1.72414	16.9365	-inf
6	1.75862	18.4821	55.1351
6.37931	1.75862	18.4821	55.5646
6.75862	1.75862	18.4821	55.3212
7.13793	1.75862	18.4821	54.7796
7.51724	1.75862	18.4821	54.1118
7.89655	1.75862	18.4821	53.3912
8.27586	1.75862	18.4821	52.6484
8.65517	1.75862	18.4821	51.8964
9.03448	1.75862	18.4821	51.1406
9.41379	1.75862	18.4821	50.383
9.7931	1.75862	18.4821	49.6123
10.1724	1.75862	18.4821	48.7829
10.5517	1.75862	18.4821	47.8536
10.931	1.75862	18.4821	46.8308
11.3103	1.75862	18.4821	45.7472
11.6897	1.75862	18.4821	44.6308
12.069	1.75862	18.4821	43.4966
12.4483	1.75862	18.4821	42.349
12.8276	1.75862	18.4821	41.1848
13.2069	1.75862	18.4821	39.9925
13.5862	1.75862	18.4821	38.7486
13.9655	1.75862	18.4821	37.4071
14.3448	1.75862	18.4821	35.874
14.7241	1.75862	18.4821	33.9263
15.1034	1.75862	18.4821	30.9362
15.4828	1.75862	18.4821	25.371
15.8621	1.75862	18.4821	13.6296
16.2414	1.75862	18.4821	-12.9039
16.6207	1.75862	18.4821	-74.865
17	1.75862	18.4821	-inf
6	1.7931	20.1374	55.0576
6.37931	1.7931	20.1374	55.4915
6.75862	1.7931	20.1374	55.2489
7.13793	1.7931	20.1374	54.7075
7.51724	1.7931	20.1374	54.0398
7.89655	1.7931	20.1374	53.3192
8.27586	1.7931	20.1374	52.5764
8.65517	1.7931	20.1374	51.8244
9.03448	1.7931	20.1374	51.0686
9.41379	1.7931	20.1374	50.311
9.7931	1.7931	20.1374	49.5399
10.1724	1.7931	20.1374	48.7094
10.5517	1.7931	20.1374	47.7788
10.931	1.7931	20.1374	46.7548
11.3103	1.7931	20.1374	45.6706
11.6897	1.7931	20.1374	44.554
12.069	1.7931	20.1374	43.4196
12.4483	1.7931	20.1374	42.272
12.8276	1.7931	20.1374	41.1077
13.2069	1.7931	20.1374	39.9154
13.5862	1.7931	20.1374	38.6715
13.9655	1.7931	20.1374	37.33
14.3448	1.7931	20.1374	35.797
14.7241	1.7931	20.1374	33.8492
15.1034	1.7931	20.1374	30.8591
15.4828	1.7931	20.1374	25.2939
15.8621	1.7931	20.1374	13.5525
16.2414	1.7931	20.1374	-12.981
16.6207	1.7931	20.1374	-74.942
17	1.7931	20.1374	-inf
6	1.82759	21.9104	54.9804
6.37931	1.82759	21.9104	55.4185
6.75862	1.82759	21.9104	55.1766
7.13793	1.82759	21.9104	54.6354
7.51724	1.82759	21.9104	53.9677
7.89655	1.82759	21.9104	53.2471
8.27586	1.82759	21.9104	52.5044
8.65517	1.82759	21.9104	51.7524
9.03448	1.82759	21.9104	50.9966
9.41379	1.82759	21.9104	50.239
9.7931	1.82759	21.9104	49.4675
10.1724	1.82759	21.9104	48.6359
10.5517	1.82759	21.9104	47.7039
10.931	1.82759	21.9104	46.6789
11.3103	1.82759	21.9104	45.5941
11.6897	1.82759	21.9104	44.4771
12.069	1.82759	21.9104	43.3427
12.4483	1.82759	21.9104	42.195
12.8276	1.82759	21.9104	41.0307
13.2069	1.82759	21.9104	39.8384
13.5862	1.82759	21.9104	38.5945
13.9655	1.82759	21.9104	37.2529
14.3448	1.82759	21.9104	35.7199
14.7241	1.82759	21.9104	33.7721
15.1034	1.82759	21.9104	30.7821
15.4828	1.82759	21.9104	25.2168
15.8621	1.82759	21.9104	13.4755
16.2414	1.82759	21.9104	-13.0581
16.6207	1.82759	21.9104	-75.0191
17	1.82759	21.9104	-inf
6	1.86207	23.8099	54.9034
6.37931	1.86207	23.8099	55.3455
6.75862	1.86207	23.8099	55.1042
7.13793	1.86207	23.8099	54.5632
7.51724	1.86207	23.8099	53.8957
7.89655	1.86207	23.8099	53.1751
8.27586	1.86207	23.8099	52.4324
8.65517	1.86207	23.8099	51.6804
9.03448	1.86207	23.8099	50.9245
9.41379	1.86207	23.8099	50.1669
9.7931	1.86207	23.8099	49.3951
10.1724	1.86207	23.8099	48.5624
10.5517	1.86207	23.8099	47.629
10.931	1.86207	23.8099	46.6029
11.3103	1.86207	23.8099	45.5175
11.6897	1.86207	23.8099	44.4003
12.069	1.86207	23.8099	43.2658
12.4483	1.86207	23.8099	42.118
12.8276	1.86207	23.8099	40.9537
13.2069	1.86207	23.8099	39.7614
13.5862	1.86207	23.8099	38.5175
13.9655	1.86207	23.8099	37.1759
14.3448	1.86207	23.8099	35.6429
14.7241	1.86207	23.8099	33.6951
15.1034	1.86207	23.8099	30.7051
15.4828	1.86207	23.8099	25.1398
15.8621	1.86207	23.8099	13.3984
16.2414	1.86207	23.8099	-13.1351
16.6207	1.86207	23.8099	-75.0961
17	1.86207	23.8099	-inf
6	1.89655	25.8454	54.8267
6.37931	1.89655	25.8454	55.2725
6.75862	1.89655	25.8454	55.0319
7.13793	1.89655	25.8454	54.4911
7.51724	1.89655	25.8454	53.8236
7.89655	1.89655	25.8454	53.103
8.27586	1.89655	25.8454	52.3603
8.65517	1.89655	25.8454	51.6083
9.03448	1.89655	25.8454	50.8525
9.41379	1.89655	25.8454	50.0949
9.7931	1.89655	25.8454	49.3227
10.1724	1.89655	25.8454	48.4889
10.5517	1.89655	25.8454	47.5541
10.931	1.89655	25.8454	46.527
11.3103	1.89655	25.8454	45.441
11.6897	1.89655	25.8454	44.3236
12.069	1.89655	25.8454	43.1889
12.4483	1.89655	25.8454	42.0411
12.8276	1.89655	25.8454	40.8767
13.2069	1.89655	25.8454	39.6844
13.5862	1.89655	25.8454	38.4405
13.9655	1.89655	25.8454	37.099
14.3448	1.89655	25.8454	35.5659
14.7241	1.89655	25.8454	33.6182
15.1034	1.89655	25.8454	30.6281
15.4828	1.89655	25.8454	25.0629
15.8621	1.89655	25.8454	13.3215
16.2414	1.89655	25.8454	-13.212
16.6207	1.89655	25.8454	-75.1731
17	1.89655	25.8454	-inf
6	1.93103	28.0269	54.7503
6.37931	1.93103	28.0269	55.1996
6.75862	1.93103	28.0269	54.9596
7.13793	1.93103	28.0269	54.4189
7.51724	1.93103	28.0269	53.7515
7.89655	1.93103	28.0269	53.0309
8.27586	1.93103	28.0269	52.2882
8.65517	1.93103	28.0269	51.5362
9.03448	1.93103	28.0269	50.7804
9.41379	1.93103	28.0269	50.0228
9.7931	1.93103	28.0269	49.2502
10.1724	1.93103	28.0269	48.4153
10.5517	1.93103	28.0269	47.4791
10.931	1.93103	28.0269	46.4511
11.3103	1.93103	28.0269	45.3646
11.6897	1.93103	28.0269	44.2468
12.069	1.93103	28.0269	43.112
12.4483	1.93103	28.0269	41.9642
12.8276	1.93103	28.0269	40.7998
13.2069	1.93103	28.0269	39.6075
13.5862	1.93103	28.0269	38.3636
13.9655	1.93103	28.0269	37.022
14.3448	1.93103	28.0269	35.489
14.7241	1.93103	28.0269	33.5412
15.1034	1.93103	28.0269	30.5512
15.4828	1.93103	28.0269	24.9859
15.8621	1.93103	28.0269	13.2445
16.2414	1.93103	28.0269	-13.289
16.6207	1.93103	28.0269	-75.25
17	1.93103	28.0269	-inf
6	1.96552	30.3653	54.674
6.37931	1.96552	30.3653	55.1267
6.75862	1.96552	30.3653	54.8872
7.13793	1.96552	30.3653	54.3467
7.51724	1.96552	30.3653	53.6793
7.89655	1.96552	30.3653	52.9588
8.27586	1.96552	30.3653	52.2161
8.65517	1.96552	30.3653	51.4642
9.03448	1.96552	30.3653	50.7083
9.41379	1.96552	30.3653	49.9507
9.7931	1.96552	30.3653	49.1777
10.1724	1.96552	30.3653	48.3417
10.5517	1.96552	30.3653	47.4042
10.931	1.96552	30.3653	46.3752
11.3103	1.96552	30.3653	45.2881
11.6897	1.96552	30.3653	44.1701
12.069	1.96552	30.3653	43.0352
12.4483	1.96552	30.3653	41.8873
12.8276	1.96552	30.3653	40.7229
13.2069	1.96552	30.3653	39.5306
13.5862	1.96552	30.3653	38.2867
13.9655	1.96552	30.3653	36.9451
14.3448	1.96552	30.3653	35.4121
14.7241	1.96552	30.3653	33.4643
15.1034	1.96552	30.3653	30.4743
15.4828	1.96552	30.3653	24.909
15.8621	1.96552	30.3653	13.1676
16.2414	1.96552	30.3653	-13.3659
16.6207	1.96552	30.3653	-75.3269
17	1.96552	30.3653	-inf
6	2	32.8722	-inf
6.37931	2	32.8722	-inf
6.75862	2	32.8722	-inf
7.13793	2	32.8722	-inf
7.51724	2	32.8722	-inf
7.89655	2	32.8722	-inf
8.27586	2	32.8722	-inf
8.65517	2	32.8722	-inf
9.03448	2	32.8722	-inf
9.41379	2	32.8722	-inf
9.7931	2	32.8722	-inf
10.1724	2	32.8722	-inf
10.5517	2	32.8722	-inf
10.931	2	32.8722	-inf
11.3103	2	32.8722	-inf
11.6897	2	32.8722	-inf
12.069	2	32.8722	-inf
12.4483	2	32.8722	-inf
12.8276	2	32.8722	-inf
13.2069	2	32.8722	-inf
13.5862	2	32.8722	-inf
13.9655	2	32.8722	-inf
14.3448	2	32.8722	-inf
14.7241	2	32.8722	-inf
15.1034	2	32.8722	-inf
15.4828	2	32.8722	-inf
15.8621	2	32.8722	-inf
16.2414	2	32.8722	-inf
16.6207	2	32.8722	-inf
17	2	32.8722	-inf
