log(E / eV)	log(z / pc)	t / yr	 logQ
6	0.69897	0	57.0552
6.10101	0.69897	0	57.2576
6.20202	0.69897	0	57.3785
6.30303	0.69897	0	57.4339
6.40404	0.69897	0	57.4369
6.50505	0.69897	0	57.398
6.60606	0.69897	0	57.3257
6.70707	0.69897	0	57.2268
6.80808	0.69897	0	57.1066
6.90909	0.69897	0	56.9696
7.0101	0.69897	0	56.8191
7.11111	0.69897	0	56.658
7.21212	0.69897	0	56.4884
7.31313	0.69897	0	56.3121
7.41414	0.69897	0	56.1305
7.51515	0.69897	0	55.9446
7.61616	0.69897	0	55.7554
7.71717	0.69897	0	55.5635
7.81818	0.69897	0	55.3696
7.91919	0.69897	0	55.1739
8.0202	0.69897	0	54.977
8.12121	0.69897	0	54.779
8.22222	0.69897	0	54.5801
8.32323	0.69897	0	54.3806
8.42424	0.69897	0	54.1806
8.52525	0.69897	0	53.9802
8.62626	0.69897	0	53.7794
8.72727	0.69897	0	53.5784
8.82828	0.69897	0	53.3771
8.92929	0.69897	0	53.1757
9.0303	0.69897	0	52.9742
9.13131	0.69897	0	52.7726
9.23232	0.69897	0	52.5709
9.33333	0.69897	0	52.3691
9.43434	0.69897	0	52.1673
9.53535	0.69897	0	51.9654
9.63636	0.69897	0	51.7635
9.73737	0.69897	0	51.5616
9.83838	0.69897	0	51.3596
9.93939	0.69897	0	51.1577
10.0404	0.69897	0	50.9557
10.1414	0.69897	0	50.7537
10.2424	0.69897	0	50.5517
10.3434	0.69897	0	50.3497
10.4444	0.69897	0	50.1477
10.5455	0.69897	0	49.9457
10.6465	0.69897	0	49.7437
10.7475	0.69897	0	49.5417
10.8485	0.69897	0	49.3397
10.9495	0.69897	0	49.1376
11.0505	0.69897	0	48.9356
11.1515	0.69897	0	48.7336
11.2525	0.69897	0	48.5315
11.3535	0.69897	0	48.3295
11.4545	0.69897	0	48.1274
11.5556	0.69897	0	47.9253
11.6566	0.69897	0	47.7233
11.7576	0.69897	0	47.5211
11.8586	0.69897	0	47.319
11.9596	0.69897	0	47.1168
12.0606	0.69897	0	46.9143
12.1616	0.69897	0	46.7114
12.2626	0.69897	0	46.5072
12.3636	0.69897	0	46.3007
12.4646	0.69897	0	46.0902
12.5657	0.69897	0	45.874
12.6667	0.69897	0	45.6503
12.7677	0.69897	0	45.4178
12.8687	0.69897	0	45.1758
12.9697	0.69897	0	44.9241
13.0707	0.69897	0	44.6629
13.1717	0.69897	0	44.3928
13.2727	0.69897	0	44.1144
13.3737	0.69897	0	43.8283
13.4747	0.69897	0	43.5352
13.5758	0.69897	0	43.2354
13.6768	0.69897	0	42.9293
13.7778	0.69897	0	42.617
13.8788	0.69897	0	42.2984
13.9798	0.69897	0	41.9731
14.0808	0.69897	0	41.6408
14.1818	0.69897	0	41.3005
14.2828	0.69897	0	40.9512
14.3838	0.69897	0	40.5916
14.4848	0.69897	0	40.22
14.5859	0.69897	0	39.834
14.6869	0.69897	0	39.4311
14.7879	0.69897	0	39.0078
14.8889	0.69897	0	38.5598
14.9899	0.69897	0	38.0821
15.0909	0.69897	0	37.568
15.1919	0.69897	0	37.0094
15.2929	0.69897	0	36.3963
15.3939	0.69897	0	35.7161
15.4949	0.69897	0	34.9527
15.596	0.69897	0	34.0861
15.697	0.69897	0	33.0905
15.798	0.69897	0	31.932
15.899	0.69897	0	30.5535
16	0.69897	0	-inf
6	0.719378	0.709039	57.3086
6.10101	0.719378	0.709039	57.4979
6.20202	0.719378	0.709039	57.6096
6.30303	0.719378	0.709039	57.6585
6.40404	0.719378	0.709039	57.6569
6.50505	0.719378	0.709039	57.6145
6.60606	0.719378	0.709039	57.5397
6.70707	0.719378	0.709039	57.4388
6.80808	0.719378	0.709039	57.3171
6.90909	0.719378	0.709039	57.1789
7.0101	0.719378	0.709039	57.0275
7.11111	0.719378	0.709039	56.8657
7.21212	0.719378	0.709039	56.6956
7.31313	0.719378	0.709039	56.5189
7.41414	0.719378	0.709039	56.3369
7.51515	0.719378	0.709039	56.1508
7.61616	0.719378	0.709039	55.9614
7.71717	0.719378	0.709039	55.7694
7.81818	0.719378	0.709039	55.5753
7.91919	0.719378	0.709039	55.3795
8.0202	0.719378	0.709039	55.1825
8.12121	0.719378	0.709039	54.9844
8.22222	0.719378	0.709039	54.7855
8.32323	0.719378	0.709039	54.586
8.42424	0.719378	0.709039	54.3859
8.52525	0.719378	0.709039	54.1855
8.62626	0.719378	0.709039	53.9847
8.72727	0.719378	0.709039	53.7836
8.82828	0.719378	0.709039	53.5824
8.92929	0.719378	0.709039	53.381
9.0303	0.719378	0.709039	53.1795
9.13131	0.719378	0.709039	52.9778
9.23232	0.719378	0.709039	52.7761
9.33333	0.719378	0.709039	52.5743
9.43434	0.719378	0.709039	52.3725
9.53535	0.719378	0.709039	52.1706
9.63636	0.719378	0.709039	51.9687
9.73737	0.719378	0.709039	51.7668
9.83838	0.719378	0.709039	51.5649
9.93939	0.719378	0.709039	51.3629
10.0404	0.719378	0.709039	51.1609
10.1414	0.719378	0.709039	50.9589
10.2424	0.719378	0.709039	50.7569
10.3434	0.719378	0.709039	50.5549
10.4444	0.719378	0.709039	50.3529
10.5455	0.719378	0.709039	50.1509
10.6465	0.719378	0.709039	49.9489
10.7475	0.719378	0.709039	49.7469
10.8485	0.719378	0.709039	49.5449
10.9495	0.719378	0.709039	49.3428
11.0505	0.719378	0.709039	49.1408
11.1515	0.719378	0.709039	48.9388
11.2525	0.719378	0.709039	48.7367
11.3535	0.719378	0.709039	48.5347
11.4545	0.719378	0.709039	48.3326
11.5556	0.719378	0.709039	48.1305
11.6566	0.719378	0.709039	47.9284
11.7576	0.719378	0.709039	47.7263
11.8586	0.719378	0.709039	47.5241
11.9596	0.719378	0.709039	47.3216
12.0606	0.719378	0.709039	47.1184
12.1616	0.719378	0.709039	46.9139
12.2626	0.719378	0.709039	46.7069
12.3636	0.719378	0.709039	46.4957
12.4646	0.719378	0.709039	46.2788
12.5657	0.719378	0.709039	46.0545
12.6667	0.719378	0.709039	45.8216
12.7677	0.719378	0.709039	45.5794
12.8687	0.719378	0.709039	45.3279
12.9697	0.719378	0.709039	45.0672
13.0707	0.719378	0.709039	44.7979
13.1717	0.719378	0.709039	44.5206
13.2727	0.719378	0.709039	44.236
13.3737	0.719378	0.709039	43.9448
13.4747	0.719378	0.709039	43.6473
13.5758	0.719378	0.709039	43.344
13.6768	0.719378	0.709039	43.0351
13.7778	0.719378	0.709039	42.7204
13.8788	0.719378	0.709039	42.4
13.9798	0.719378	0.709039	42.0733
14.0808	0.719378	0.709039	41.7397
14.1818	0.719378	0.709039	41.3985
14.2828	0.719378	0.709039	41.0486
14.3838	0.719378	0.709039	40.6884
14.4848	0.719378	0.709039	40.3163
14.5859	0.719378	0.709039	39.93
14.6869	0.719378	0.709039	39.5268
14.7879	0.719378	0.709039	39.1033
14.8889	0.719378	0.709039	38.6552
14.9899	0.719378	0.709039	38.1774
15.0909	0.719378	0.709039	37.6632
15.1919	0.719378	0.709039	37.1046
15.2929	0.719378	0.709039	36.4914
15.3939	0.719378	0.709039	35.8111
15.4949	0.719378	0.709039	35.0477
15.596	0.719378	0.709039	34.1811
15.697	0.719378	0.709039	33.1855
15.798	0.719378	0.709039	32.027
15.899	0.719378	0.709039	30.6485
16	0.719378	0.709039	-inf
6	0.739786	1.25965	57.5394
6.10101	0.739786	1.25965	57.7097
6.20202	0.739786	1.25965	57.8086
6.30303	0.739786	1.25965	57.8485
6.40404	0.739786	1.25965	57.8404
6.50505	0.739786	1.25965	57.7933
6.60606	0.739786	1.25965	57.7149
6.70707	0.739786	1.25965	57.6113
6.80808	0.739786	1.25965	57.4877
6.90909	0.739786	1.25965	57.3479
7.0101	0.739786	1.25965	57.1953
7.11111	0.739786	1.25965	57.0326
7.21212	0.739786	1.25965	56.8618
7.31313	0.739786	1.25965	56.6845
7.41414	0.739786	1.25965	56.5021
7.51515	0.739786	1.25965	56.3156
7.61616	0.739786	1.25965	56.1259
7.71717	0.739786	1.25965	55.9337
7.81818	0.739786	1.25965	55.7394
7.91919	0.739786	1.25965	55.5435
8.0202	0.739786	1.25965	55.3464
8.12121	0.739786	1.25965	55.1482
8.22222	0.739786	1.25965	54.9493
8.32323	0.739786	1.25965	54.7497
8.42424	0.739786	1.25965	54.5496
8.52525	0.739786	1.25965	54.3491
8.62626	0.739786	1.25965	54.1483
8.72727	0.739786	1.25965	53.9472
8.82828	0.739786	1.25965	53.7459
8.92929	0.739786	1.25965	53.5445
9.0303	0.739786	1.25965	53.343
9.13131	0.739786	1.25965	53.1413
9.23232	0.739786	1.25965	52.9396
9.33333	0.739786	1.25965	52.7378
9.43434	0.739786	1.25965	52.536
9.53535	0.739786	1.25965	52.3341
9.63636	0.739786	1.25965	52.1322
9.73737	0.739786	1.25965	51.9303
9.83838	0.739786	1.25965	51.7283
9.93939	0.739786	1.25965	51.5264
10.0404	0.739786	1.25965	51.3244
10.1414	0.739786	1.25965	51.1224
10.2424	0.739786	1.25965	50.9204
10.3434	0.739786	1.25965	50.7184
10.4444	0.739786	1.25965	50.5164
10.5455	0.739786	1.25965	50.3144
10.6465	0.739786	1.25965	50.1124
10.7475	0.739786	1.25965	49.9104
10.8485	0.739786	1.25965	49.7084
10.9495	0.739786	1.25965	49.5063
11.0505	0.739786	1.25965	49.3043
11.1515	0.739786	1.25965	49.1023
11.2525	0.739786	1.25965	48.9002
11.3535	0.739786	1.25965	48.6982
11.4545	0.739786	1.25965	48.4961
11.5556	0.739786	1.25965	48.294
11.6566	0.739786	1.25965	48.0918
11.7576	0.739786	1.25965	47.8895
11.8586	0.739786	1.25965	47.6868
11.9596	0.739786	1.25965	47.4834
12.0606	0.739786	1.25965	47.2783
12.1616	0.739786	1.25965	47.0704
12.2626	0.739786	1.25965	46.8582
12.3636	0.739786	1.25965	46.6402
12.4646	0.739786	1.25965	46.4149
12.5657	0.739786	1.25965	46.1811
12.6667	0.739786	1.25965	45.9384
12.7677	0.739786	1.25965	45.6867
12.8687	0.739786	1.25965	45.4261
12.9697	0.739786	1.25965	45.1572
13.0707	0.739786	1.25965	44.8807
13.1717	0.739786	1.25965	44.5973
13.2727	0.739786	1.25965	44.3075
13.3737	0.739786	1.25965	44.0119
13.4747	0.739786	1.25965	43.7109
13.5758	0.739786	1.25965	43.4047
13.6768	0.739786	1.25965	43.0934
13.7778	0.739786	1.25965	42.7769
13.8788	0.739786	1.25965	42.4549
13.9798	0.739786	1.25965	42.1271
14.0808	0.739786	1.25965	41.7926
14.1818	0.739786	1.25965	41.4506
14.2828	0.739786	1.25965	41.1001
14.3838	0.739786	1.25965	40.7395
14.4848	0.739786	1.25965	40.3671
14.5859	0.739786	1.25965	39.9805
14.6869	0.739786	1.25965	39.5771
14.7879	0.739786	1.25965	39.1534
14.8889	0.739786	1.25965	38.7052
14.9899	0.739786	1.25965	38.2273
15.0909	0.739786	1.25965	37.713
15.1919	0.739786	1.25965	37.1544
15.2929	0.739786	1.25965	36.5412
15.3939	0.739786	1.25965	35.8608
15.4949	0.739786	1.25965	35.0974
15.596	0.739786	1.25965	34.2308
15.697	0.739786	1.25965	33.2352
15.798	0.739786	1.25965	32.0766
15.899	0.739786	1.25965	30.6982
16	0.739786	1.25965	-inf
6	0.760194	1.34651	57.7728
6.10101	0.760194	1.34651	57.8931
6.20202	0.760194	1.34651	57.9581
6.30303	0.760194	1.34651	57.9744
6.40404	0.760194	1.34651	57.9495
6.50505	0.760194	1.34651	57.8902
6.60606	0.760194	1.34651	57.8028
6.70707	0.760194	1.34651	57.6925
6.80808	0.760194	1.34651	57.5637
6.90909	0.760194	1.34651	57.42
7.0101	0.760194	1.34651	57.2645
7.11111	0.760194	1.34651	57.0994
7.21212	0.760194	1.34651	56.9267
7.31313	0.760194	1.34651	56.748
7.41414	0.760194	1.34651	56.5645
7.51515	0.760194	1.34651	56.3772
7.61616	0.760194	1.34651	56.1868
7.71717	0.760194	1.34651	55.994
7.81818	0.760194	1.34651	55.7993
7.91919	0.760194	1.34651	55.6031
8.0202	0.760194	1.34651	55.4057
8.12121	0.760194	1.34651	55.2073
8.22222	0.760194	1.34651	55.0082
8.32323	0.760194	1.34651	54.8085
8.42424	0.760194	1.34651	54.6083
8.52525	0.760194	1.34651	54.4077
8.62626	0.760194	1.34651	54.2068
8.72727	0.760194	1.34651	54.0057
8.82828	0.760194	1.34651	53.8044
8.92929	0.760194	1.34651	53.603
9.0303	0.760194	1.34651	53.4014
9.13131	0.760194	1.34651	53.1997
9.23232	0.760194	1.34651	52.998
9.33333	0.760194	1.34651	52.7962
9.43434	0.760194	1.34651	52.5944
9.53535	0.760194	1.34651	52.3925
9.63636	0.760194	1.34651	52.1906
9.73737	0.760194	1.34651	51.9886
9.83838	0.760194	1.34651	51.7867
9.93939	0.760194	1.34651	51.5847
10.0404	0.760194	1.34651	51.3827
10.1414	0.760194	1.34651	51.1808
10.2424	0.760194	1.34651	50.9788
10.3434	0.760194	1.34651	50.7768
10.4444	0.760194	1.34651	50.5747
10.5455	0.760194	1.34651	50.3727
10.6465	0.760194	1.34651	50.1707
10.7475	0.760194	1.34651	49.9687
10.8485	0.760194	1.34651	49.7667
10.9495	0.760194	1.34651	49.5646
11.0505	0.760194	1.34651	49.3626
11.1515	0.760194	1.34651	49.1606
11.2525	0.760194	1.34651	48.9585
11.3535	0.760194	1.34651	48.7564
11.4545	0.760194	1.34651	48.5541
11.5556	0.760194	1.34651	48.3517
11.6566	0.760194	1.34651	48.1487
11.7576	0.760194	1.34651	47.9448
11.8586	0.760194	1.34651	47.7393
11.9596	0.760194	1.34651	47.5312
12.0606	0.760194	1.34651	47.3192
12.1616	0.760194	1.34651	47.102
12.2626	0.760194	1.34651	46.8782
12.3636	0.760194	1.34651	46.6469
12.4646	0.760194	1.34651	46.4074
12.5657	0.760194	1.34651	46.1593
12.6667	0.760194	1.34651	45.9029
12.7677	0.760194	1.34651	45.6384
12.8687	0.760194	1.34651	45.3664
12.9697	0.760194	1.34651	45.0876
13.0707	0.760194	1.34651	44.8026
13.1717	0.760194	1.34651	44.512
13.2727	0.760194	1.34651	44.2163
13.3737	0.760194	1.34651	43.9159
13.4747	0.760194	1.34651	43.611
13.5758	0.760194	1.34651	43.3016
13.6768	0.760194	1.34651	42.9878
13.7778	0.760194	1.34651	42.6692
13.8788	0.760194	1.34651	42.3457
13.9798	0.760194	1.34651	42.0165
14.0808	0.760194	1.34651	41.681
14.1818	0.760194	1.34651	41.3383
14.2828	0.760194	1.34651	40.9872
14.3838	0.760194	1.34651	40.6261
14.4848	0.760194	1.34651	40.2533
14.5859	0.760194	1.34651	39.8664
14.6869	0.760194	1.34651	39.4628
14.7879	0.760194	1.34651	39.039
14.8889	0.760194	1.34651	38.5907
14.9899	0.760194	1.34651	38.1126
15.0909	0.760194	1.34651	37.5983
15.1919	0.760194	1.34651	37.0396
15.2929	0.760194	1.34651	36.4263
15.3939	0.760194	1.34651	35.746
15.4949	0.760194	1.34651	34.9825
15.596	0.760194	1.34651	34.1159
15.697	0.760194	1.34651	33.1203
15.798	0.760194	1.34651	31.9617
15.899	0.760194	1.34651	30.5832
16	0.760194	1.34651	-inf
6	0.780603	1.50276	57.9195
6.10101	0.780603	1.50276	58.0036
6.20202	0.780603	1.50276	58.0435
6.30303	0.780603	1.50276	58.0422
6.40404	0.780603	1.50276	58.0047
6.50505	0.780603	1.50276	57.9363
6.60606	0.780603	1.50276	57.8422
6.70707	0.780603	1.50276	57.7269
6.80808	0.780603	1.50276	57.5943
6.90909	0.780603	1.50276	57.4478
7.0101	0.780603	1.50276	57.29
7.11111	0.780603	1.50276	57.1232
7.21212	0.780603	1.50276	56.9492
7.31313	0.780603	1.50276	56.7695
7.41414	0.780603	1.50276	56.5851
7.51515	0.780603	1.50276	56.3972
7.61616	0.780603	1.50276	56.2063
7.71717	0.780603	1.50276	56.0131
7.81818	0.780603	1.50276	55.8181
7.91919	0.780603	1.50276	55.6216
8.0202	0.780603	1.50276	55.424
8.12121	0.780603	1.50276	55.2255
8.22222	0.780603	1.50276	55.0263
8.32323	0.780603	1.50276	54.8264
8.42424	0.780603	1.50276	54.6262
8.52525	0.780603	1.50276	54.4255
8.62626	0.780603	1.50276	54.2246
8.72727	0.780603	1.50276	54.0235
8.82828	0.780603	1.50276	53.8221
8.92929	0.780603	1.50276	53.6206
9.0303	0.780603	1.50276	53.4191
9.13131	0.780603	1.50276	53.2174
9.23232	0.780603	1.50276	53.0156
9.33333	0.780603	1.50276	52.8138
9.43434	0.780603	1.50276	52.612
9.53535	0.780603	1.50276	52.4101
9.63636	0.780603	1.50276	52.2082
9.73737	0.780603	1.50276	52.0062
9.83838	0.780603	1.50276	51.8043
9.93939	0.780603	1.50276	51.6023
10.0404	0.780603	1.50276	51.4003
10.1414	0.780603	1.50276	51.1983
10.2424	0.780603	1.50276	50.9963
10.3434	0.780603	1.50276	50.7943
10.4444	0.780603	1.50276	50.5923
10.5455	0.780603	1.50276	50.3903
10.6465	0.780603	1.50276	50.1883
10.7475	0.780603	1.50276	49.9863
10.8485	0.780603	1.50276	49.7842
10.9495	0.780603	1.50276	49.5822
11.0505	0.780603	1.50276	49.3801
11.1515	0.780603	1.50276	49.178
11.2525	0.780603	1.50276	48.9758
11.3535	0.780603	1.50276	48.7734
11.4545	0.780603	1.50276	48.5707
11.5556	0.780603	1.50276	48.3673
11.6566	0.780603	1.50276	48.1628
11.7576	0.780603	1.50276	47.9565
11.8586	0.780603	1.50276	47.7474
11.9596	0.780603	1.50276	47.5345
12.0606	0.780603	1.50276	47.3165
12.1616	0.780603	1.50276	47.0922
12.2626	0.780603	1.50276	46.8608
12.3636	0.780603	1.50276	46.6215
12.4646	0.780603	1.50276	46.374
12.5657	0.780603	1.50276	46.1185
12.6667	0.780603	1.50276	45.8551
12.7677	0.780603	1.50276	45.5845
12.8687	0.780603	1.50276	45.3072
12.9697	0.780603	1.50276	45.0239
13.0707	0.780603	1.50276	44.7351
13.1717	0.780603	1.50276	44.4414
13.2727	0.780603	1.50276	44.1431
13.3737	0.780603	1.50276	43.8406
13.4747	0.780603	1.50276	43.5339
13.5758	0.780603	1.50276	43.2232
13.6768	0.780603	1.50276	42.9083
13.7778	0.780603	1.50276	42.5889
13.8788	0.780603	1.50276	42.2646
13.9798	0.780603	1.50276	41.9349
14.0808	0.780603	1.50276	41.599
14.1818	0.780603	1.50276	41.256
14.2828	0.780603	1.50276	40.9046
14.3838	0.780603	1.50276	40.5433
14.4848	0.780603	1.50276	40.1703
14.5859	0.780603	1.50276	39.7834
14.6869	0.780603	1.50276	39.3797
14.7879	0.780603	1.50276	38.9557
14.8889	0.780603	1.50276	38.5074
14.9899	0.780603	1.50276	38.0293
15.0909	0.780603	1.50276	37.5149
15.1919	0.780603	1.50276	36.9562
15.2929	0.780603	1.50276	36.343
15.3939	0.780603	1.50276	35.6626
15.4949	0.780603	1.50276	34.8991
15.596	0.780603	1.50276	34.0325
15.697	0.780603	1.50276	33.0369
15.798	0.780603	1.50276	31.8783
15.899	0.780603	1.50276	30.4998
16	0.780603	1.50276	-inf
6	0.801011	1.65527	58.0291
6.10101	0.801011	1.65527	58.0851
6.20202	0.801011	1.65527	58.1048
6.30303	0.801011	1.65527	58.0892
6.40404	0.801011	1.65527	58.0413
6.50505	0.801011	1.65527	57.9654
6.60606	0.801011	1.65527	57.8657
6.70707	0.801011	1.65527	57.7462
6.80808	0.801011	1.65527	57.6105
6.90909	0.801011	1.65527	57.4615
7.0101	0.801011	1.65527	57.3019
7.11111	0.801011	1.65527	57.1337
7.21212	0.801011	1.65527	56.9586
7.31313	0.801011	1.65527	56.778
7.41414	0.801011	1.65527	56.593
7.51515	0.801011	1.65527	56.4045
7.61616	0.801011	1.65527	56.2132
7.71717	0.801011	1.65527	56.0197
7.81818	0.801011	1.65527	55.8244
7.91919	0.801011	1.65527	55.6278
8.0202	0.801011	1.65527	55.43
8.12121	0.801011	1.65527	55.2314
8.22222	0.801011	1.65527	55.032
8.32323	0.801011	1.65527	54.8321
8.42424	0.801011	1.65527	54.6318
8.52525	0.801011	1.65527	54.4311
8.62626	0.801011	1.65527	54.2301
8.72727	0.801011	1.65527	54.0289
8.82828	0.801011	1.65527	53.8276
8.92929	0.801011	1.65527	53.6261
9.0303	0.801011	1.65527	53.4245
9.13131	0.801011	1.65527	53.2228
9.23232	0.801011	1.65527	53.021
9.33333	0.801011	1.65527	52.8192
9.43434	0.801011	1.65527	52.6174
9.53535	0.801011	1.65527	52.4155
9.63636	0.801011	1.65527	52.2135
9.73737	0.801011	1.65527	52.0116
9.83838	0.801011	1.65527	51.8097
9.93939	0.801011	1.65527	51.6077
10.0404	0.801011	1.65527	51.4057
10.1414	0.801011	1.65527	51.2037
10.2424	0.801011	1.65527	51.0017
10.3434	0.801011	1.65527	50.7997
10.4444	0.801011	1.65527	50.5977
10.5455	0.801011	1.65527	50.3957
10.6465	0.801011	1.65527	50.1937
10.7475	0.801011	1.65527	49.9916
10.8485	0.801011	1.65527	49.7896
10.9495	0.801011	1.65527	49.5875
11.0505	0.801011	1.65527	49.3853
11.1515	0.801011	1.65527	49.183
11.2525	0.801011	1.65527	48.9805
11.3535	0.801011	1.65527	48.7776
11.4545	0.801011	1.65527	48.574
11.5556	0.801011	1.65527	48.3693
11.6566	0.801011	1.65527	48.1628
11.7576	0.801011	1.65527	47.9538
11.8586	0.801011	1.65527	47.7412
11.9596	0.801011	1.65527	47.5239
12.0606	0.801011	1.65527	47.3008
12.1616	0.801011	1.65527	47.0711
12.2626	0.801011	1.65527	46.8338
12.3636	0.801011	1.65527	46.5888
12.4646	0.801011	1.65527	46.3359
12.5657	0.801011	1.65527	46.0753
12.6667	0.801011	1.65527	45.8075
12.7677	0.801011	1.65527	45.5329
12.8687	0.801011	1.65527	45.2522
12.9697	0.801011	1.65527	44.966
13.0707	0.801011	1.65527	44.6748
13.1717	0.801011	1.65527	44.3791
13.2727	0.801011	1.65527	44.0793
13.3737	0.801011	1.65527	43.7754
13.4747	0.801011	1.65527	43.4677
13.5758	0.801011	1.65527	43.1561
13.6768	0.801011	1.65527	42.8405
13.7778	0.801011	1.65527	42.5206
13.8788	0.801011	1.65527	42.1959
13.9798	0.801011	1.65527	41.8659
14.0808	0.801011	1.65527	41.5297
14.1818	0.801011	1.65527	41.1865
14.2828	0.801011	1.65527	40.8349
14.3838	0.801011	1.65527	40.4735
14.4848	0.801011	1.65527	40.1004
14.5859	0.801011	1.65527	39.7134
14.6869	0.801011	1.65527	39.3096
14.7879	0.801011	1.65527	38.8857
14.8889	0.801011	1.65527	38.4373
14.9899	0.801011	1.65527	37.9592
15.0909	0.801011	1.65527	37.4448
15.1919	0.801011	1.65527	36.886
15.2929	0.801011	1.65527	36.2728
15.3939	0.801011	1.65527	35.5924
15.4949	0.801011	1.65527	34.829
15.596	0.801011	1.65527	33.9623
15.697	0.801011	1.65527	32.9667
15.798	0.801011	1.65527	31.8081
15.899	0.801011	1.65527	30.4296
16	0.801011	1.65527	-inf
6	0.821419	1.77878	58.1115
6.10101	0.821419	1.77878	58.1437
6.20202	0.821419	1.77878	58.1458
6.30303	0.821419	1.77878	58.1174
6.40404	0.821419	1.77878	58.0602
6.50505	0.821419	1.77878	57.9774
6.60606	0.821419	1.77878	57.8727
6.70707	0.821419	1.77878	57.7494
6.80808	0.821419	1.77878	57.6108
6.90909	0.821419	1.77878	57.4596
7.0101	0.821419	1.77878	57.2983
7.11111	0.821419	1.77878	57.1288
7.21212	0.821419	1.77878	56.9527
7.31313	0.821419	1.77878	56.7713
7.41414	0.821419	1.77878	56.5857
7.51515	0.821419	1.77878	56.3967
7.61616	0.821419	1.77878	56.205
7.71717	0.821419	1.77878	56.0112
7.81818	0.821419	1.77878	55.8157
7.91919	0.821419	1.77878	55.6189
8.0202	0.821419	1.77878	55.421
8.12121	0.821419	1.77878	55.2222
8.22222	0.821419	1.77878	55.0227
8.32323	0.821419	1.77878	54.8228
8.42424	0.821419	1.77878	54.6224
8.52525	0.821419	1.77878	54.4216
8.62626	0.821419	1.77878	54.2206
8.72727	0.821419	1.77878	54.0194
8.82828	0.821419	1.77878	53.818
8.92929	0.821419	1.77878	53.6165
9.0303	0.821419	1.77878	53.4149
9.13131	0.821419	1.77878	53.2132
9.23232	0.821419	1.77878	53.0114
9.33333	0.821419	1.77878	52.8096
9.43434	0.821419	1.77878	52.6078
9.53535	0.821419	1.77878	52.4059
9.63636	0.821419	1.77878	52.2039
9.73737	0.821419	1.77878	52.002
9.83838	0.821419	1.77878	51.8
9.93939	0.821419	1.77878	51.5981
10.0404	0.821419	1.77878	51.3961
10.1414	0.821419	1.77878	51.1941
10.2424	0.821419	1.77878	50.9921
10.3434	0.821419	1.77878	50.7901
10.4444	0.821419	1.77878	50.5881
10.5455	0.821419	1.77878	50.386
10.6465	0.821419	1.77878	50.184
10.7475	0.821419	1.77878	49.9819
10.8485	0.821419	1.77878	49.7798
10.9495	0.821419	1.77878	49.5776
11.0505	0.821419	1.77878	49.3753
11.1515	0.821419	1.77878	49.1727
11.2525	0.821419	1.77878	48.9697
11.3535	0.821419	1.77878	48.766
11.4545	0.821419	1.77878	48.5613
11.5556	0.821419	1.77878	48.3549
11.6566	0.821419	1.77878	48.1463
11.7576	0.821419	1.77878	47.9344
11.8586	0.821419	1.77878	47.7183
11.9596	0.821419	1.77878	47.497
12.0606	0.821419	1.77878	47.2695
12.1616	0.821419	1.77878	47.0351
12.2626	0.821419	1.77878	46.7932
12.3636	0.821419	1.77878	46.5437
12.4646	0.821419	1.77878	46.2866
12.5657	0.821419	1.77878	46.0221
12.6667	0.821419	1.77878	45.7509
12.7677	0.821419	1.77878	45.4734
12.8687	0.821419	1.77878	45.1902
12.9697	0.821419	1.77878	44.9019
13.0707	0.821419	1.77878	44.609
13.1717	0.821419	1.77878	44.3119
13.2727	0.821419	1.77878	44.0108
13.3737	0.821419	1.77878	43.706
13.4747	0.821419	1.77878	43.3976
13.5758	0.821419	1.77878	43.0854
13.6768	0.821419	1.77878	42.7693
13.7778	0.821419	1.77878	42.449
13.8788	0.821419	1.77878	42.124
13.9798	0.821419	1.77878	41.7937
14.0808	0.821419	1.77878	41.4574
14.1818	0.821419	1.77878	41.114
14.2828	0.821419	1.77878	40.7623
14.3838	0.821419	1.77878	40.4008
14.4848	0.821419	1.77878	40.0276
14.5859	0.821419	1.77878	39.6406
14.6869	0.821419	1.77878	39.2368
14.7879	0.821419	1.77878	38.8128
14.8889	0.821419	1.77878	38.3644
14.9899	0.821419	1.77878	37.8862
15.0909	0.821419	1.77878	37.3718
15.1919	0.821419	1.77878	36.8131
15.2929	0.821419	1.77878	36.1998
15.3939	0.821419	1.77878	35.5194
15.4949	0.821419	1.77878	34.756
15.596	0.821419	1.77878	33.8894
15.697	0.821419	1.77878	32.8937
15.798	0.821419	1.77878	31.7351
15.899	0.821419	1.77878	30.3567
16	0.821419	1.77878	-inf
6	0.841827	1.89703	58.1731
6.10101	0.841827	1.89703	58.1865
6.20202	0.841827	1.89703	58.1744
6.30303	0.841827	1.89703	58.1353
6.40404	0.841827	1.89703	58.0704
6.50505	0.841827	1.89703	57.9818
6.60606	0.841827	1.89703	57.8728
6.70707	0.841827	1.89703	57.7462
6.80808	0.841827	1.89703	57.6052
6.90909	0.841827	1.89703	57.4522
7.0101	0.841827	1.89703	57.2894
7.11111	0.841827	1.89703	57.1188
7.21212	0.841827	1.89703	56.9418
7.31313	0.841827	1.89703	56.7597
7.41414	0.841827	1.89703	56.5736
7.51515	0.841827	1.89703	56.3842
7.61616	0.841827	1.89703	56.1922
7.71717	0.841827	1.89703	55.9981
7.81818	0.841827	1.89703	55.8024
7.91919	0.841827	1.89703	55.6054
8.0202	0.841827	1.89703	55.4074
8.12121	0.841827	1.89703	55.2085
8.22222	0.841827	1.89703	55.009
8.32323	0.841827	1.89703	54.809
8.42424	0.841827	1.89703	54.6085
8.52525	0.841827	1.89703	54.4077
8.62626	0.841827	1.89703	54.2067
8.72727	0.841827	1.89703	54.0055
8.82828	0.841827	1.89703	53.8041
8.92929	0.841827	1.89703	53.6025
9.0303	0.841827	1.89703	53.4009
9.13131	0.841827	1.89703	53.1992
9.23232	0.841827	1.89703	52.9974
9.33333	0.841827	1.89703	52.7956
9.43434	0.841827	1.89703	52.5937
9.53535	0.841827	1.89703	52.3918
9.63636	0.841827	1.89703	52.1899
9.73737	0.841827	1.89703	51.988
9.83838	0.841827	1.89703	51.786
9.93939	0.841827	1.89703	51.584
10.0404	0.841827	1.89703	51.382
10.1414	0.841827	1.89703	51.18
10.2424	0.841827	1.89703	50.978
10.3434	0.841827	1.89703	50.776
10.4444	0.841827	1.89703	50.574
10.5455	0.841827	1.89703	50.3719
10.6465	0.841827	1.89703	50.1699
10.7475	0.841827	1.89703	49.9677
10.8485	0.841827	1.89703	49.7655
10.9495	0.841827	1.89703	49.5631
11.0505	0.841827	1.89703	49.3605
11.1515	0.841827	1.89703	49.1575
11.2525	0.841827	1.89703	48.9539
11.3535	0.841827	1.89703	48.7493
11.4545	0.841827	1.89703	48.5433
11.5556	0.841827	1.89703	48.3352
11.6566	0.841827	1.89703	48.1244
11.7576	0.841827	1.89703	47.9099
11.8586	0.841827	1.89703	47.6907
11.9596	0.841827	1.89703	47.4659
12.0606	0.841827	1.89703	47.2347
12.1616	0.841827	1.89703	46.9966
12.2626	0.841827	1.89703	46.751
12.3636	0.841827	1.89703	46.4979
12.4646	0.841827	1.89703	46.2375
12.5657	0.841827	1.89703	45.9702
12.6667	0.841827	1.89703	45.6964
12.7677	0.841827	1.89703	45.4167
12.8687	0.841827	1.89703	45.1316
12.9697	0.841827	1.89703	44.8417
13.0707	0.841827	1.89703	44.5475
13.1717	0.841827	1.89703	44.2493
13.2727	0.841827	1.89703	43.9474
13.3737	0.841827	1.89703	43.6419
13.4747	0.841827	1.89703	43.3329
13.5758	0.841827	1.89703	43.0203
13.6768	0.841827	1.89703	42.7038
13.7778	0.841827	1.89703	42.3832
13.8788	0.841827	1.89703	42.058
13.9798	0.841827	1.89703	41.7276
14.0808	0.841827	1.89703	41.3911
14.1818	0.841827	1.89703	41.0476
14.2828	0.841827	1.89703	40.6958
14.3838	0.841827	1.89703	40.3342
14.4848	0.841827	1.89703	39.9611
14.5859	0.841827	1.89703	39.5739
14.6869	0.841827	1.89703	39.1701
14.7879	0.841827	1.89703	38.7461
14.8889	0.841827	1.89703	38.2977
14.9899	0.841827	1.89703	37.8195
15.0909	0.841827	1.89703	37.3051
15.1919	0.841827	1.89703	36.7463
15.2929	0.841827	1.89703	36.1331
15.3939	0.841827	1.89703	35.4527
15.4949	0.841827	1.89703	34.6892
15.596	0.841827	1.89703	33.8226
15.697	0.841827	1.89703	32.827
15.798	0.841827	1.89703	31.6684
15.899	0.841827	1.89703	30.2899
16	0.841827	1.89703	-inf
6	0.862235	2.01459	58.2196
6.10101	0.862235	2.01459	58.2181
6.20202	0.862235	2.01459	58.1945
6.30303	0.862235	2.01459	58.1468
6.40404	0.862235	2.01459	58.0753
6.50505	0.862235	2.01459	57.982
6.60606	0.862235	2.01459	57.8693
6.70707	0.862235	2.01459	57.74
6.80808	0.862235	2.01459	57.5969
6.90909	0.862235	2.01459	57.4423
7.0101	0.862235	2.01459	57.2783
7.11111	0.862235	2.01459	57.1067
7.21212	0.862235	2.01459	56.929
7.31313	0.862235	2.01459	56.7464
7.41414	0.862235	2.01459	56.5598
7.51515	0.862235	2.01459	56.37
7.61616	0.862235	2.01459	56.1778
7.71717	0.862235	2.01459	55.9835
7.81818	0.862235	2.01459	55.7876
7.91919	0.862235	2.01459	55.5905
8.0202	0.862235	2.01459	55.3923
8.12121	0.862235	2.01459	55.1934
8.22222	0.862235	2.01459	54.9938
8.32323	0.862235	2.01459	54.7937
8.42424	0.862235	2.01459	54.5932
8.52525	0.862235	2.01459	54.3924
8.62626	0.862235	2.01459	54.1913
8.72727	0.862235	2.01459	53.9901
8.82828	0.862235	2.01459	53.7887
8.92929	0.862235	2.01459	53.5871
9.0303	0.862235	2.01459	53.3855
9.13131	0.862235	2.01459	53.1838
9.23232	0.862235	2.01459	52.982
9.33333	0.862235	2.01459	52.7801
9.43434	0.862235	2.01459	52.5783
9.53535	0.862235	2.01459	52.3764
9.63636	0.862235	2.01459	52.1744
9.73737	0.862235	2.01459	51.9725
9.83838	0.862235	2.01459	51.7705
9.93939	0.862235	2.01459	51.5685
10.0404	0.862235	2.01459	51.3666
10.1414	0.862235	2.01459	51.1646
10.2424	0.862235	2.01459	50.9625
10.3434	0.862235	2.01459	50.7605
10.4444	0.862235	2.01459	50.5584
10.5455	0.862235	2.01459	50.3564
10.6465	0.862235	2.01459	50.1542
10.7475	0.862235	2.01459	49.952
10.8485	0.862235	2.01459	49.7496
10.9495	0.862235	2.01459	49.547
11.0505	0.862235	2.01459	49.344
11.1515	0.862235	2.01459	49.1405
11.2525	0.862235	2.01459	48.9362
11.3535	0.862235	2.01459	48.7306
11.4545	0.862235	2.01459	48.5233
11.5556	0.862235	2.01459	48.3136
11.6566	0.862235	2.01459	48.1007
11.7576	0.862235	2.01459	47.8838
11.8586	0.862235	2.01459	47.6619
11.9596	0.862235	2.01459	47.4341
12.0606	0.862235	2.01459	47.1999
12.1616	0.862235	2.01459	46.9585
12.2626	0.862235	2.01459	46.7099
12.3636	0.862235	2.01459	46.454
12.4646	0.862235	2.01459	46.191
12.5657	0.862235	2.01459	45.9214
12.6667	0.862235	2.01459	45.6455
12.7677	0.862235	2.01459	45.3641
12.8687	0.862235	2.01459	45.0775
12.9697	0.862235	2.01459	44.7864
13.0707	0.862235	2.01459	44.4912
13.1717	0.862235	2.01459	44.1922
13.2727	0.862235	2.01459	43.8896
13.3737	0.862235	2.01459	43.5835
13.4747	0.862235	2.01459	43.2741
13.5758	0.862235	2.01459	42.9611
13.6768	0.862235	2.01459	42.6444
13.7778	0.862235	2.01459	42.3236
13.8788	0.862235	2.01459	41.9982
13.9798	0.862235	2.01459	41.6676
14.0808	0.862235	2.01459	41.331
14.1818	0.862235	2.01459	40.9874
14.2828	0.862235	2.01459	40.6356
14.3838	0.862235	2.01459	40.274
14.4848	0.862235	2.01459	39.9007
14.5859	0.862235	2.01459	39.5136
14.6869	0.862235	2.01459	39.1097
14.7879	0.862235	2.01459	38.6857
14.8889	0.862235	2.01459	38.2372
14.9899	0.862235	2.01459	37.7591
15.0909	0.862235	2.01459	37.2447
15.1919	0.862235	2.01459	36.6859
15.2929	0.862235	2.01459	36.0727
15.3939	0.862235	2.01459	35.3923
15.4949	0.862235	2.01459	34.6288
15.596	0.862235	2.01459	33.7622
15.697	0.862235	2.01459	32.7665
15.798	0.862235	2.01459	31.6079
15.899	0.862235	2.01459	30.2295
16	0.862235	2.01459	-inf
6	0.882643	2.11899	58.2523
6.10101	0.882643	2.11899	58.2383
6.20202	0.882643	2.11899	58.2047
6.30303	0.882643	2.11899	58.1494
6.40404	0.882643	2.11899	58.0723
6.50505	0.882643	2.11899	57.9746
6.60606	0.882643	2.11899	57.8587
6.70707	0.882643	2.11899	57.727
6.80808	0.882643	2.11899	57.582
6.90909	0.882643	2.11899	57.4259
7.0101	0.882643	2.11899	57.2609
7.11111	0.882643	2.11899	57.0884
7.21212	0.882643	2.11899	56.91
7.31313	0.882643	2.11899	56.7269
7.41414	0.882643	2.11899	56.5399
7.51515	0.882643	2.11899	56.3498
7.61616	0.882643	2.11899	56.1573
7.71717	0.882643	2.11899	55.9628
7.81818	0.882643	2.11899	55.7668
7.91919	0.882643	2.11899	55.5695
8.0202	0.882643	2.11899	55.3713
8.12121	0.882643	2.11899	55.1722
8.22222	0.882643	2.11899	54.9726
8.32323	0.882643	2.11899	54.7725
8.42424	0.882643	2.11899	54.5719
8.52525	0.882643	2.11899	54.3711
8.62626	0.882643	2.11899	54.17
8.72727	0.882643	2.11899	53.9687
8.82828	0.882643	2.11899	53.7673
8.92929	0.882643	2.11899	53.5657
9.0303	0.882643	2.11899	53.3641
9.13131	0.882643	2.11899	53.1624
9.23232	0.882643	2.11899	52.9606
9.33333	0.882643	2.11899	52.7587
9.43434	0.882643	2.11899	52.5569
9.53535	0.882643	2.11899	52.355
9.63636	0.882643	2.11899	52.153
9.73737	0.882643	2.11899	51.9511
9.83838	0.882643	2.11899	51.7491
9.93939	0.882643	2.11899	51.5471
10.0404	0.882643	2.11899	51.3451
10.1414	0.882643	2.11899	51.1431
10.2424	0.882643	2.11899	50.9411
10.3434	0.882643	2.11899	50.739
10.4444	0.882643	2.11899	50.5369
10.5455	0.882643	2.11899	50.3348
10.6465	0.882643	2.11899	50.1325
10.7475	0.882643	2.11899	49.9302
10.8485	0.882643	2.11899	49.7276
10.9495	0.882643	2.11899	49.5247
11.0505	0.882643	2.11899	49.3213
11.1515	0.882643	2.11899	49.1172
11.2525	0.882643	2.11899	48.9121
11.3535	0.882643	2.11899	48.7055
11.4545	0.882643	2.11899	48.4969
11.5556	0.882643	2.11899	48.2856
11.6566	0.882643	2.11899	48.0707
11.7576	0.882643	2.11899	47.8515
11.8586	0.882643	2.11899	47.6271
11.9596	0.882643	2.11899	47.3967
12.0606	0.882643	2.11899	47.1598
12.1616	0.882643	2.11899	46.9157
12.2626	0.882643	2.11899	46.6646
12.3636	0.882643	2.11899	46.4062
12.4646	0.882643	2.11899	46.1411
12.5657	0.882643	2.11899	45.8694
12.6667	0.882643	2.11899	45.5919
12.7677	0.882643	2.11899	45.309
12.8687	0.882643	2.11899	45.0212
12.9697	0.882643	2.11899	44.7291
13.0707	0.882643	2.11899	44.4331
13.1717	0.882643	2.11899	44.1334
13.2727	0.882643	2.11899	43.8302
13.3737	0.882643	2.11899	43.5237
13.4747	0.882643	2.11899	43.2139
13.5758	0.882643	2.11899	42.9006
13.6768	0.882643	2.11899	42.5837
13.7778	0.882643	2.11899	42.2627
13.8788	0.882643	2.11899	41.9372
13.9798	0.882643	2.11899	41.6065
14.0808	0.882643	2.11899	41.2698
14.1818	0.882643	2.11899	40.9261
14.2828	0.882643	2.11899	40.5742
14.3838	0.882643	2.11899	40.2126
14.4848	0.882643	2.11899	39.8393
14.5859	0.882643	2.11899	39.4521
14.6869	0.882643	2.11899	39.0483
14.7879	0.882643	2.11899	38.6242
14.8889	0.882643	2.11899	38.1758
14.9899	0.882643	2.11899	37.6976
15.0909	0.882643	2.11899	37.1832
15.1919	0.882643	2.11899	36.6244
15.2929	0.882643	2.11899	36.0111
15.3939	0.882643	2.11899	35.3307
15.4949	0.882643	2.11899	34.5673
15.596	0.882643	2.11899	33.7006
15.697	0.882643	2.11899	32.705
15.798	0.882643	2.11899	31.5464
15.899	0.882643	2.11899	30.1679
16	0.882643	2.11899	-inf
6	0.903052	2.21305	58.2735
6.10101	0.903052	2.21305	58.2488
6.20202	0.903052	2.21305	58.2067
6.30303	0.903052	2.21305	58.1448
6.40404	0.903052	2.21305	58.0626
6.50505	0.903052	2.21305	57.9611
6.60606	0.903052	2.21305	57.8423
6.70707	0.903052	2.21305	57.7084
6.80808	0.903052	2.21305	57.5618
6.90909	0.903052	2.21305	57.4044
7.0101	0.903052	2.21305	57.2384
7.11111	0.903052	2.21305	57.0652
7.21212	0.903052	2.21305	56.8862
7.31313	0.903052	2.21305	56.7026
7.41414	0.903052	2.21305	56.5152
7.51515	0.903052	2.21305	56.3248
7.61616	0.903052	2.21305	56.1321
7.71717	0.903052	2.21305	55.9374
7.81818	0.903052	2.21305	55.7413
7.91919	0.903052	2.21305	55.5439
8.0202	0.903052	2.21305	55.3456
8.12121	0.903052	2.21305	55.1465
8.22222	0.903052	2.21305	54.9468
8.32323	0.903052	2.21305	54.7466
8.42424	0.903052	2.21305	54.546
8.52525	0.903052	2.21305	54.3451
8.62626	0.903052	2.21305	54.144
8.72727	0.903052	2.21305	53.9427
8.82828	0.903052	2.21305	53.7413
8.92929	0.903052	2.21305	53.5397
9.0303	0.903052	2.21305	53.3381
9.13131	0.903052	2.21305	53.1363
9.23232	0.903052	2.21305	52.9346
9.33333	0.903052	2.21305	52.7327
9.43434	0.903052	2.21305	52.5308
9.53535	0.903052	2.21305	52.3289
9.63636	0.903052	2.21305	52.127
9.73737	0.903052	2.21305	51.925
9.83838	0.903052	2.21305	51.7231
9.93939	0.903052	2.21305	51.5211
10.0404	0.903052	2.21305	51.3191
10.1414	0.903052	2.21305	51.117
10.2424	0.903052	2.21305	50.915
10.3434	0.903052	2.21305	50.7129
10.4444	0.903052	2.21305	50.5107
10.5455	0.903052	2.21305	50.3085
10.6465	0.903052	2.21305	50.1061
10.7475	0.903052	2.21305	49.9036
10.8485	0.903052	2.21305	49.7008
10.9495	0.903052	2.21305	49.4976
11.0505	0.903052	2.21305	49.2937
11.1515	0.903052	2.21305	49.089
11.2525	0.903052	2.21305	48.8831
11.3535	0.903052	2.21305	48.6754
11.4545	0.903052	2.21305	48.4655
11.5556	0.903052	2.21305	48.2526
11.6566	0.903052	2.21305	48.0359
11.7576	0.903052	2.21305	47.8147
11.8586	0.903052	2.21305	47.588
11.9596	0.903052	2.21305	47.3553
12.0606	0.903052	2.21305	47.1159
12.1616	0.903052	2.21305	46.8695
12.2626	0.903052	2.21305	46.6161
12.3636	0.903052	2.21305	46.3557
12.4646	0.903052	2.21305	46.0887
12.5657	0.903052	2.21305	45.8154
12.6667	0.903052	2.21305	45.5364
12.7677	0.903052	2.21305	45.2523
12.8687	0.903052	2.21305	44.9635
12.9697	0.903052	2.21305	44.6705
13.0707	0.903052	2.21305	44.3738
13.1717	0.903052	2.21305	44.0735
13.2727	0.903052	2.21305	43.7699
13.3737	0.903052	2.21305	43.463
13.4747	0.903052	2.21305	43.1529
13.5758	0.903052	2.21305	42.8394
13.6768	0.903052	2.21305	42.5223
13.7778	0.903052	2.21305	42.2011
13.8788	0.903052	2.21305	41.8755
13.9798	0.903052	2.21305	41.5447
14.0808	0.903052	2.21305	41.2079
14.1818	0.903052	2.21305	40.8642
14.2828	0.903052	2.21305	40.5122
14.3838	0.903052	2.21305	40.1506
14.4848	0.903052	2.21305	39.7773
14.5859	0.903052	2.21305	39.3901
14.6869	0.903052	2.21305	38.9862
14.7879	0.903052	2.21305	38.5621
14.8889	0.903052	2.21305	38.1136
14.9899	0.903052	2.21305	37.6355
15.0909	0.903052	2.21305	37.1211
15.1919	0.903052	2.21305	36.5623
15.2929	0.903052	2.21305	35.949
15.3939	0.903052	2.21305	35.2686
15.4949	0.903052	2.21305	34.5052
15.596	0.903052	2.21305	33.6385
15.697	0.903052	2.21305	32.6429
15.798	0.903052	2.21305	31.4843
15.899	0.903052	2.21305	30.1058
16	0.903052	2.21305	-inf
6	0.92346	2.31446	58.2889
6.10101	0.92346	2.31446	58.2557
6.20202	0.92346	2.31446	58.2068
6.30303	0.92346	2.31446	58.1395
6.40404	0.92346	2.31446	58.0531
6.50505	0.92346	2.31446	57.9485
6.60606	0.92346	2.31446	57.8272
6.70707	0.92346	2.31446	57.6915
6.80808	0.92346	2.31446	57.5434
6.90909	0.92346	2.31446	57.385
7.0101	0.92346	2.31446	57.2182
7.11111	0.92346	2.31446	57.0443
7.21212	0.92346	2.31446	56.8648
7.31313	0.92346	2.31446	56.6808
7.41414	0.92346	2.31446	56.4931
7.51515	0.92346	2.31446	56.3025
7.61616	0.92346	2.31446	56.1096
7.71717	0.92346	2.31446	55.9148
7.81818	0.92346	2.31446	55.7185
7.91919	0.92346	2.31446	55.521
8.0202	0.92346	2.31446	55.3226
8.12121	0.92346	2.31446	55.1235
8.22222	0.92346	2.31446	54.9237
8.32323	0.92346	2.31446	54.7235
8.42424	0.92346	2.31446	54.5229
8.52525	0.92346	2.31446	54.322
8.62626	0.92346	2.31446	54.1209
8.72727	0.92346	2.31446	53.9196
8.82828	0.92346	2.31446	53.7181
8.92929	0.92346	2.31446	53.5166
9.0303	0.92346	2.31446	53.3149
9.13131	0.92346	2.31446	53.1131
9.23232	0.92346	2.31446	52.9113
9.33333	0.92346	2.31446	52.7095
9.43434	0.92346	2.31446	52.5076
9.53535	0.92346	2.31446	52.3057
9.63636	0.92346	2.31446	52.1038
9.73737	0.92346	2.31446	51.9018
9.83838	0.92346	2.31446	51.6998
9.93939	0.92346	2.31446	51.4978
10.0404	0.92346	2.31446	51.2958
10.1414	0.92346	2.31446	51.0937
10.2424	0.92346	2.31446	50.8917
10.3434	0.92346	2.31446	50.6895
10.4444	0.92346	2.31446	50.4873
10.5455	0.92346	2.31446	50.285
10.6465	0.92346	2.31446	50.0825
10.7475	0.92346	2.31446	49.8798
10.8485	0.92346	2.31446	49.6767
10.9495	0.92346	2.31446	49.4731
11.0505	0.92346	2.31446	49.2688
11.1515	0.92346	2.31446	49.0635
11.2525	0.92346	2.31446	48.8567
11.3535	0.92346	2.31446	48.6481
11.4545	0.92346	2.31446	48.4369
11.5556	0.92346	2.31446	48.2226
11.6566	0.92346	2.31446	48.0042
11.7576	0.92346	2.31446	47.7811
11.8586	0.92346	2.31446	47.5524
11.9596	0.92346	2.31446	47.3176
12.0606	0.92346	2.31446	47.0761
12.1616	0.92346	2.31446	46.8277
12.2626	0.92346	2.31446	46.5724
12.3636	0.92346	2.31446	46.3102
12.4646	0.92346	2.31446	46.0415
12.5657	0.92346	2.31446	45.7668
12.6667	0.92346	2.31446	45.4867
12.7677	0.92346	2.31446	45.2015
12.8687	0.92346	2.31446	44.9118
12.9697	0.92346	2.31446	44.6181
13.0707	0.92346	2.31446	44.3207
13.1717	0.92346	2.31446	44.0199
13.2727	0.92346	2.31446	43.7159
13.3737	0.92346	2.31446	43.4088
13.4747	0.92346	2.31446	43.0984
13.5758	0.92346	2.31446	42.7847
13.6768	0.92346	2.31446	42.4674
13.7778	0.92346	2.31446	42.1461
13.8788	0.92346	2.31446	41.8203
13.9798	0.92346	2.31446	41.4895
14.0808	0.92346	2.31446	41.1526
14.1818	0.92346	2.31446	40.8089
14.2828	0.92346	2.31446	40.4569
14.3838	0.92346	2.31446	40.0952
14.4848	0.92346	2.31446	39.7219
14.5859	0.92346	2.31446	39.3347
14.6869	0.92346	2.31446	38.9307
14.7879	0.92346	2.31446	38.5067
14.8889	0.92346	2.31446	38.0582
14.9899	0.92346	2.31446	37.58
15.0909	0.92346	2.31446	37.0656
15.1919	0.92346	2.31446	36.5068
15.2929	0.92346	2.31446	35.8935
15.3939	0.92346	2.31446	35.2131
15.4949	0.92346	2.31446	34.4497
15.596	0.92346	2.31446	33.583
15.697	0.92346	2.31446	32.5874
15.798	0.92346	2.31446	31.4288
15.899	0.92346	2.31446	30.0503
16	0.92346	2.31446	-inf
6	0.943868	2.39366	58.2929
6.10101	0.943868	2.39366	58.2518
6.20202	0.943868	2.39366	58.1964
6.30303	0.943868	2.39366	58.124
6.40404	0.943868	2.39366	58.0337
6.50505	0.943868	2.39366	57.9261
6.60606	0.943868	2.39366	57.8026
6.70707	0.943868	2.39366	57.6651
6.80808	0.943868	2.39366	57.5157
6.90909	0.943868	2.39366	57.3562
7.0101	0.943868	2.39366	57.1885
7.11111	0.943868	2.39366	57.0141
7.21212	0.943868	2.39366	56.8341
7.31313	0.943868	2.39366	56.6497
7.41414	0.943868	2.39366	56.4617
7.51515	0.943868	2.39366	56.2709
7.61616	0.943868	2.39366	56.0778
7.71717	0.943868	2.39366	55.8828
7.81818	0.943868	2.39366	55.6864
7.91919	0.943868	2.39366	55.4889
8.0202	0.943868	2.39366	55.2904
8.12121	0.943868	2.39366	55.0912
8.22222	0.943868	2.39366	54.8914
8.32323	0.943868	2.39366	54.6911
8.42424	0.943868	2.39366	54.4905
8.52525	0.943868	2.39366	54.2896
8.62626	0.943868	2.39366	54.0884
8.72727	0.943868	2.39366	53.8871
8.82828	0.943868	2.39366	53.6857
8.92929	0.943868	2.39366	53.4841
9.0303	0.943868	2.39366	53.2824
9.13131	0.943868	2.39366	53.0807
9.23232	0.943868	2.39366	52.8788
9.33333	0.943868	2.39366	52.677
9.43434	0.943868	2.39366	52.4751
9.53535	0.943868	2.39366	52.2732
9.63636	0.943868	2.39366	52.0712
9.73737	0.943868	2.39366	51.8693
9.83838	0.943868	2.39366	51.6673
9.93939	0.943868	2.39366	51.4653
10.0404	0.943868	2.39366	51.2632
10.1414	0.943868	2.39366	51.0611
10.2424	0.943868	2.39366	50.859
10.3434	0.943868	2.39366	50.6568
10.4444	0.943868	2.39366	50.4545
10.5455	0.943868	2.39366	50.2521
10.6465	0.943868	2.39366	50.0494
10.7475	0.943868	2.39366	49.8465
10.8485	0.943868	2.39366	49.6431
10.9495	0.943868	2.39366	49.4391
11.0505	0.943868	2.39366	49.2343
11.1515	0.943868	2.39366	49.0283
11.2525	0.943868	2.39366	48.8208
11.3535	0.943868	2.39366	48.6111
11.4545	0.943868	2.39366	48.3987
11.5556	0.943868	2.39366	48.1829
11.6566	0.943868	2.39366	47.963
11.7576	0.943868	2.39366	47.7381
11.8586	0.943868	2.39366	47.5076
11.9596	0.943868	2.39366	47.2708
12.0606	0.943868	2.39366	47.0274
12.1616	0.943868	2.39366	46.7772
12.2626	0.943868	2.39366	46.5201
12.3636	0.943868	2.39366	46.2563
12.4646	0.943868	2.39366	45.9862
12.5657	0.943868	2.39366	45.7103
12.6667	0.943868	2.39366	45.429
12.7677	0.943868	2.39366	45.1429
12.8687	0.943868	2.39366	44.8525
12.9697	0.943868	2.39366	44.5581
13.0707	0.943868	2.39366	44.2602
13.1717	0.943868	2.39366	43.959
13.2727	0.943868	2.39366	43.6546
13.3737	0.943868	2.39366	43.3472
13.4747	0.943868	2.39366	43.0366
13.5758	0.943868	2.39366	42.7227
13.6768	0.943868	2.39366	42.4052
13.7778	0.943868	2.39366	42.0839
13.8788	0.943868	2.39366	41.758
13.9798	0.943868	2.39366	41.4271
14.0808	0.943868	2.39366	41.0902
14.1818	0.943868	2.39366	40.7464
14.2828	0.943868	2.39366	40.3944
14.3838	0.943868	2.39366	40.0326
14.4848	0.943868	2.39366	39.6593
14.5859	0.943868	2.39366	39.2721
14.6869	0.943868	2.39366	38.8681
14.7879	0.943868	2.39366	38.4441
14.8889	0.943868	2.39366	37.9956
14.9899	0.943868	2.39366	37.5174
15.0909	0.943868	2.39366	37.003
15.1919	0.943868	2.39366	36.4442
15.2929	0.943868	2.39366	35.8309
15.3939	0.943868	2.39366	35.1505
15.4949	0.943868	2.39366	34.387
15.596	0.943868	2.39366	33.5204
15.697	0.943868	2.39366	32.5248
15.798	0.943868	2.39366	31.3662
15.899	0.943868	2.39366	29.9877
16	0.943868	2.39366	-inf
6	0.964276	2.48297	58.2944
6.10101	0.964276	2.48297	58.2471
6.20202	0.964276	2.48297	58.1865
6.30303	0.964276	2.48297	58.1099
6.40404	0.964276	2.48297	58.0164
6.50505	0.964276	2.48297	57.9062
6.60606	0.964276	2.48297	57.7808
6.70707	0.964276	2.48297	57.6418
6.80808	0.964276	2.48297	57.4913
6.90909	0.964276	2.48297	57.331
7.0101	0.964276	2.48297	57.1626
7.11111	0.964276	2.48297	56.9876
7.21212	0.964276	2.48297	56.8072
7.31313	0.964276	2.48297	56.6225
7.41414	0.964276	2.48297	56.4343
7.51515	0.964276	2.48297	56.2433
7.61616	0.964276	2.48297	56.05
7.71717	0.964276	2.48297	55.8549
7.81818	0.964276	2.48297	55.6584
7.91919	0.964276	2.48297	55.4608
8.0202	0.964276	2.48297	55.2622
8.12121	0.964276	2.48297	55.063
8.22222	0.964276	2.48297	54.8631
8.32323	0.964276	2.48297	54.6629
8.42424	0.964276	2.48297	54.4622
8.52525	0.964276	2.48297	54.2613
8.62626	0.964276	2.48297	54.0601
8.72727	0.964276	2.48297	53.8588
8.82828	0.964276	2.48297	53.6573
8.92929	0.964276	2.48297	53.4557
9.0303	0.964276	2.48297	53.2541
9.13131	0.964276	2.48297	53.0523
9.23232	0.964276	2.48297	52.8505
9.33333	0.964276	2.48297	52.6486
9.43434	0.964276	2.48297	52.4467
9.53535	0.964276	2.48297	52.2448
9.63636	0.964276	2.48297	52.0429
9.73737	0.964276	2.48297	51.8409
9.83838	0.964276	2.48297	51.6389
9.93939	0.964276	2.48297	51.4368
10.0404	0.964276	2.48297	51.2348
10.1414	0.964276	2.48297	51.0327
10.2424	0.964276	2.48297	50.8305
10.3434	0.964276	2.48297	50.6282
10.4444	0.964276	2.48297	50.4258
10.5455	0.964276	2.48297	50.2233
10.6465	0.964276	2.48297	50.0205
10.7475	0.964276	2.48297	49.8173
10.8485	0.964276	2.48297	49.6136
10.9495	0.964276	2.48297	49.4093
11.0505	0.964276	2.48297	49.2039
11.1515	0.964276	2.48297	48.9973
11.2525	0.964276	2.48297	48.789
11.3535	0.964276	2.48297	48.5783
11.4545	0.964276	2.48297	48.3648
11.5556	0.964276	2.48297	48.1477
11.6566	0.964276	2.48297	47.9263
11.7576	0.964276	2.48297	47.6998
11.8586	0.964276	2.48297	47.4676
11.9596	0.964276	2.48297	47.2291
12.0606	0.964276	2.48297	46.984
12.1616	0.964276	2.48297	46.7321
12.2626	0.964276	2.48297	46.4734
12.3636	0.964276	2.48297	46.2082
12.4646	0.964276	2.48297	45.9369
12.5657	0.964276	2.48297	45.6598
12.6667	0.964276	2.48297	45.3776
12.7677	0.964276	2.48297	45.0906
12.8687	0.964276	2.48297	44.7995
12.9697	0.964276	2.48297	44.5046
13.0707	0.964276	2.48297	44.2062
13.1717	0.964276	2.48297	43.9046
13.2727	0.964276	2.48297	43.6
13.3737	0.964276	2.48297	43.2922
13.4747	0.964276	2.48297	42.9815
13.5758	0.964276	2.48297	42.6674
13.6768	0.964276	2.48297	42.3498
13.7778	0.964276	2.48297	42.0283
13.8788	0.964276	2.48297	41.7024
13.9798	0.964276	2.48297	41.3714
14.0808	0.964276	2.48297	41.0345
14.1818	0.964276	2.48297	40.6906
14.2828	0.964276	2.48297	40.3386
14.3838	0.964276	2.48297	39.9768
14.4848	0.964276	2.48297	39.6034
14.5859	0.964276	2.48297	39.2162
14.6869	0.964276	2.48297	38.8123
14.7879	0.964276	2.48297	38.3882
14.8889	0.964276	2.48297	37.9397
14.9899	0.964276	2.48297	37.4615
15.0909	0.964276	2.48297	36.9471
15.1919	0.964276	2.48297	36.3883
15.2929	0.964276	2.48297	35.775
15.3939	0.964276	2.48297	35.0946
15.4949	0.964276	2.48297	34.3311
15.596	0.964276	2.48297	33.4645
15.697	0.964276	2.48297	32.4689
15.798	0.964276	2.48297	31.3103
15.899	0.964276	2.48297	29.9318
16	0.964276	2.48297	-inf
6	0.984684	2.56795	58.2908
6.10101	0.984684	2.56795	58.2379
6.20202	0.984684	2.56795	58.1727
6.30303	0.984684	2.56795	58.0925
6.40404	0.984684	2.56795	57.9961
6.50505	0.984684	2.56795	57.8837
6.60606	0.984684	2.56795	57.7565
6.70707	0.984684	2.56795	57.6163
6.80808	0.984684	2.56795	57.4647
6.90909	0.984684	2.56795	57.3036
7.0101	0.984684	2.56795	57.1346
7.11111	0.984684	2.56795	56.9592
7.21212	0.984684	2.56795	56.7784
7.31313	0.984684	2.56795	56.5934
7.41414	0.984684	2.56795	56.405
7.51515	0.984684	2.56795	56.2138
7.61616	0.984684	2.56795	56.0203
7.71717	0.984684	2.56795	55.8252
7.81818	0.984684	2.56795	55.6286
7.91919	0.984684	2.56795	55.4309
8.0202	0.984684	2.56795	55.2323
8.12121	0.984684	2.56795	55.033
8.22222	0.984684	2.56795	54.8331
8.32323	0.984684	2.56795	54.6328
8.42424	0.984684	2.56795	54.4321
8.52525	0.984684	2.56795	54.2312
8.62626	0.984684	2.56795	54.03
8.72727	0.984684	2.56795	53.8287
8.82828	0.984684	2.56795	53.6272
8.92929	0.984684	2.56795	53.4256
9.0303	0.984684	2.56795	53.2239
9.13131	0.984684	2.56795	53.0221
9.23232	0.984684	2.56795	52.8203
9.33333	0.984684	2.56795	52.6185
9.43434	0.984684	2.56795	52.4166
9.53535	0.984684	2.56795	52.2146
9.63636	0.984684	2.56795	52.0127
9.73737	0.984684	2.56795	51.8107
9.83838	0.984684	2.56795	51.6087
9.93939	0.984684	2.56795	51.4066
10.0404	0.984684	2.56795	51.2045
10.1414	0.984684	2.56795	51.0023
10.2424	0.984684	2.56795	50.8001
10.3434	0.984684	2.56795	50.5978
10.4444	0.984684	2.56795	50.3953
10.5455	0.984684	2.56795	50.1926
10.6465	0.984684	2.56795	49.9896
10.7475	0.984684	2.56795	49.7862
10.8485	0.984684	2.56795	49.5822
10.9495	0.984684	2.56795	49.3775
11.0505	0.984684	2.56795	49.1716
11.1515	0.984684	2.56795	48.9644
11.2525	0.984684	2.56795	48.7552
11.3535	0.984684	2.56795	48.5437
11.4545	0.984684	2.56795	48.329
11.5556	0.984684	2.56795	48.1107
11.6566	0.984684	2.56795	47.8879
11.7576	0.984684	2.56795	47.6599
11.8586	0.984684	2.56795	47.4261
11.9596	0.984684	2.56795	47.1861
12.0606	0.984684	2.56795	46.9394
12.1616	0.984684	2.56795	46.686
12.2626	0.984684	2.56795	46.4259
12.3636	0.984684	2.56795	46.1594
12.4646	0.984684	2.56795	45.8869
12.5657	0.984684	2.56795	45.6088
12.6667	0.984684	2.56795	45.3257
12.7677	0.984684	2.56795	45.038
12.8687	0.984684	2.56795	44.7462
12.9697	0.984684	2.56795	44.4508
13.0707	0.984684	2.56795	44.152
13.1717	0.984684	2.56795	43.8501
13.2727	0.984684	2.56795	43.5451
13.3737	0.984684	2.56795	43.2372
13.4747	0.984684	2.56795	42.9262
13.5758	0.984684	2.56795	42.612
13.6768	0.984684	2.56795	42.2943
13.7778	0.984684	2.56795	41.9727
13.8788	0.984684	2.56795	41.6467
13.9798	0.984684	2.56795	41.3157
14.0808	0.984684	2.56795	40.9787
14.1818	0.984684	2.56795	40.6348
14.2828	0.984684	2.56795	40.2827
14.3838	0.984684	2.56795	39.9209
14.4848	0.984684	2.56795	39.5476
14.5859	0.984684	2.56795	39.1603
14.6869	0.984684	2.56795	38.7564
14.7879	0.984684	2.56795	38.3323
14.8889	0.984684	2.56795	37.8838
14.9899	0.984684	2.56795	37.4056
15.0909	0.984684	2.56795	36.8912
15.1919	0.984684	2.56795	36.3324
15.2929	0.984684	2.56795	35.7191
15.3939	0.984684	2.56795	35.0387
15.4949	0.984684	2.56795	34.2752
15.596	0.984684	2.56795	33.4086
15.697	0.984684	2.56795	32.4129
15.798	0.984684	2.56795	31.2543
15.899	0.984684	2.56795	29.8759
16	0.984684	2.56795	-inf
6	1.00509	2.66466	58.2873
6.10101	1.00509	2.66466	58.23
6.20202	1.00509	2.66466	58.1611
6.30303	1.00509	2.66466	58.0778
6.40404	1.00509	2.66466	57.979
6.50505	1.00509	2.66466	57.8647
6.60606	1.00509	2.66466	57.7362
6.70707	1.00509	2.66466	57.5948
6.80808	1.00509	2.66466	57.4424
6.90909	1.00509	2.66466	57.2806
7.0101	1.00509	2.66466	57.1111
7.11111	1.00509	2.66466	56.9353
7.21212	1.00509	2.66466	56.7542
7.31313	1.00509	2.66466	56.569
7.41414	1.00509	2.66466	56.3803
7.51515	1.00509	2.66466	56.189
7.61616	1.00509	2.66466	55.9954
7.71717	1.00509	2.66466	55.8002
7.81818	1.00509	2.66466	55.6035
7.91919	1.00509	2.66466	55.4057
8.0202	1.00509	2.66466	55.2071
8.12121	1.00509	2.66466	55.0078
8.22222	1.00509	2.66466	54.8079
8.32323	1.00509	2.66466	54.6075
8.42424	1.00509	2.66466	54.4068
8.52525	1.00509	2.66466	54.2059
8.62626	1.00509	2.66466	54.0047
8.72727	1.00509	2.66466	53.8033
8.82828	1.00509	2.66466	53.6019
8.92929	1.00509	2.66466	53.4003
9.0303	1.00509	2.66466	53.1986
9.13131	1.00509	2.66466	52.9968
9.23232	1.00509	2.66466	52.795
9.33333	1.00509	2.66466	52.5931
9.43434	1.00509	2.66466	52.3912
9.53535	1.00509	2.66466	52.1893
9.63636	1.00509	2.66466	51.9873
9.73737	1.00509	2.66466	51.7853
9.83838	1.00509	2.66466	51.5833
9.93939	1.00509	2.66466	51.3812
10.0404	1.00509	2.66466	51.179
10.1414	1.00509	2.66466	50.9768
10.2424	1.00509	2.66466	50.7746
10.3434	1.00509	2.66466	50.5721
10.4444	1.00509	2.66466	50.3696
10.5455	1.00509	2.66466	50.1667
10.6465	1.00509	2.66466	49.9636
10.7475	1.00509	2.66466	49.7599
10.8485	1.00509	2.66466	49.5556
10.9495	1.00509	2.66466	49.3505
11.0505	1.00509	2.66466	49.1441
11.1515	1.00509	2.66466	48.9363
11.2525	1.00509	2.66466	48.7264
11.3535	1.00509	2.66466	48.5139
11.4545	1.00509	2.66466	48.2983
11.5556	1.00509	2.66466	48.0788
11.6566	1.00509	2.66466	47.8547
11.7576	1.00509	2.66466	47.6253
11.8586	1.00509	2.66466	47.3901
11.9596	1.00509	2.66466	47.1485
12.0606	1.00509	2.66466	46.9004
12.1616	1.00509	2.66466	46.6456
12.2626	1.00509	2.66466	46.3841
12.3636	1.00509	2.66466	46.1164
12.4646	1.00509	2.66466	45.8428
12.5657	1.00509	2.66466	45.5638
12.6667	1.00509	2.66466	45.2799
12.7677	1.00509	2.66466	44.9915
12.8687	1.00509	2.66466	44.6992
12.9697	1.00509	2.66466	44.4033
13.0707	1.00509	2.66466	44.1041
13.1717	1.00509	2.66466	43.8018
13.2727	1.00509	2.66466	43.4966
13.3737	1.00509	2.66466	43.1885
13.4747	1.00509	2.66466	42.8773
13.5758	1.00509	2.66466	42.563
13.6768	1.00509	2.66466	42.2452
13.7778	1.00509	2.66466	41.9235
13.8788	1.00509	2.66466	41.5975
13.9798	1.00509	2.66466	41.2663
14.0808	1.00509	2.66466	40.9293
14.1818	1.00509	2.66466	40.5854
14.2828	1.00509	2.66466	40.2333
14.3838	1.00509	2.66466	39.8715
14.4848	1.00509	2.66466	39.4981
14.5859	1.00509	2.66466	39.1108
14.6869	1.00509	2.66466	38.7069
14.7879	1.00509	2.66466	38.2828
14.8889	1.00509	2.66466	37.8343
14.9899	1.00509	2.66466	37.3561
15.0909	1.00509	2.66466	36.8416
15.1919	1.00509	2.66466	36.2829
15.2929	1.00509	2.66466	35.6696
15.3939	1.00509	2.66466	34.9892
15.4949	1.00509	2.66466	34.2257
15.596	1.00509	2.66466	33.359
15.697	1.00509	2.66466	32.3634
15.798	1.00509	2.66466	31.2048
15.899	1.00509	2.66466	29.8263
16	1.00509	2.66466	-inf
6	1.0255	2.72835	58.2712
6.10101	1.0255	2.72835	58.2093
6.20202	1.0255	2.72835	58.1365
6.30303	1.0255	2.72835	58.05
6.40404	1.0255	2.72835	57.9487
6.50505	1.0255	2.72835	57.8325
6.60606	1.0255	2.72835	57.7024
6.70707	1.0255	2.72835	57.5599
6.80808	1.0255	2.72835	57.4066
6.90909	1.0255	2.72835	57.2442
7.0101	1.0255	2.72835	57.0741
7.11111	1.0255	2.72835	56.8979
7.21212	1.0255	2.72835	56.7165
7.31313	1.0255	2.72835	56.531
7.41414	1.0255	2.72835	56.3421
7.51515	1.0255	2.72835	56.1506
7.61616	1.0255	2.72835	55.9569
7.71717	1.0255	2.72835	55.7616
7.81818	1.0255	2.72835	55.5648
7.91919	1.0255	2.72835	55.367
8.0202	1.0255	2.72835	55.1683
8.12121	1.0255	2.72835	54.9689
8.22222	1.0255	2.72835	54.769
8.32323	1.0255	2.72835	54.5687
8.42424	1.0255	2.72835	54.368
8.52525	1.0255	2.72835	54.167
8.62626	1.0255	2.72835	53.9658
8.72727	1.0255	2.72835	53.7644
8.82828	1.0255	2.72835	53.5629
8.92929	1.0255	2.72835	53.3613
9.0303	1.0255	2.72835	53.1596
9.13131	1.0255	2.72835	52.9578
9.23232	1.0255	2.72835	52.756
9.33333	1.0255	2.72835	52.5541
9.43434	1.0255	2.72835	52.3522
9.53535	1.0255	2.72835	52.1503
9.63636	1.0255	2.72835	51.9483
9.73737	1.0255	2.72835	51.7463
9.83838	1.0255	2.72835	51.5442
9.93939	1.0255	2.72835	51.3421
10.0404	1.0255	2.72835	51.1399
10.1414	1.0255	2.72835	50.9377
10.2424	1.0255	2.72835	50.7353
10.3434	1.0255	2.72835	50.5328
10.4444	1.0255	2.72835	50.3301
10.5455	1.0255	2.72835	50.1271
10.6465	1.0255	2.72835	49.9238
10.7475	1.0255	2.72835	49.7199
10.8485	1.0255	2.72835	49.5152
10.9495	1.0255	2.72835	49.3097
11.0505	1.0255	2.72835	49.1028
11.1515	1.0255	2.72835	48.8943
11.2525	1.0255	2.72835	48.6836
11.3535	1.0255	2.72835	48.4703
11.4545	1.0255	2.72835	48.2536
11.5556	1.0255	2.72835	48.033
11.6566	1.0255	2.72835	47.8076
11.7576	1.0255	2.72835	47.5769
11.8586	1.0255	2.72835	47.3403
11.9596	1.0255	2.72835	47.0974
12.0606	1.0255	2.72835	46.8479
12.1616	1.0255	2.72835	46.5917
12.2626	1.0255	2.72835	46.3291
12.3636	1.0255	2.72835	46.0603
12.4646	1.0255	2.72835	45.7858
12.5657	1.0255	2.72835	45.5059
12.6667	1.0255	2.72835	45.2212
12.7677	1.0255	2.72835	44.9322
12.8687	1.0255	2.72835	44.6394
12.9697	1.0255	2.72835	44.3431
13.0707	1.0255	2.72835	44.0435
13.1717	1.0255	2.72835	43.741
13.2727	1.0255	2.72835	43.4355
13.3737	1.0255	2.72835	43.1272
13.4747	1.0255	2.72835	42.8159
13.5758	1.0255	2.72835	42.5015
13.6768	1.0255	2.72835	42.1836
13.7778	1.0255	2.72835	41.8618
13.8788	1.0255	2.72835	41.5357
13.9798	1.0255	2.72835	41.2045
14.0808	1.0255	2.72835	40.8675
14.1818	1.0255	2.72835	40.5235
14.2828	1.0255	2.72835	40.1714
14.3838	1.0255	2.72835	39.8096
14.4848	1.0255	2.72835	39.4362
14.5859	1.0255	2.72835	39.0489
14.6869	1.0255	2.72835	38.645
14.7879	1.0255	2.72835	38.2209
14.8889	1.0255	2.72835	37.7723
14.9899	1.0255	2.72835	37.2941
15.0909	1.0255	2.72835	36.7797
15.1919	1.0255	2.72835	36.2209
15.2929	1.0255	2.72835	35.6076
15.3939	1.0255	2.72835	34.9272
15.4949	1.0255	2.72835	34.1637
15.596	1.0255	2.72835	33.2971
15.697	1.0255	2.72835	32.3015
15.798	1.0255	2.72835	31.1429
15.899	1.0255	2.72835	29.7644
16	1.0255	2.72835	-inf
6	1.04591	2.8201	58.2612
6.10101	1.04591	2.8201	58.1959
6.20202	1.04591	2.8201	58.1201
6.30303	1.04591	2.8201	58.0312
6.40404	1.04591	2.8201	57.928
6.50505	1.04591	2.8201	57.8103
6.60606	1.04591	2.8201	57.6791
6.70707	1.04591	2.8201	57.5356
6.80808	1.04591	2.8201	57.3816
6.90909	1.04591	2.8201	57.2187
7.0101	1.04591	2.8201	57.0482
7.11111	1.04591	2.8201	56.8716
7.21212	1.04591	2.8201	56.69
7.31313	1.04591	2.8201	56.5043
7.41414	1.04591	2.8201	56.3153
7.51515	1.04591	2.8201	56.1236
7.61616	1.04591	2.8201	55.9299
7.71717	1.04591	2.8201	55.7344
7.81818	1.04591	2.8201	55.5376
7.91919	1.04591	2.8201	55.3397
8.0202	1.04591	2.8201	55.141
8.12121	1.04591	2.8201	54.9416
8.22222	1.04591	2.8201	54.7417
8.32323	1.04591	2.8201	54.5413
8.42424	1.04591	2.8201	54.3406
8.52525	1.04591	2.8201	54.1396
8.62626	1.04591	2.8201	53.9384
8.72727	1.04591	2.8201	53.737
8.82828	1.04591	2.8201	53.5355
8.92929	1.04591	2.8201	53.3339
9.0303	1.04591	2.8201	53.1322
9.13131	1.04591	2.8201	52.9304
9.23232	1.04591	2.8201	52.7286
9.33333	1.04591	2.8201	52.5267
9.43434	1.04591	2.8201	52.3248
9.53535	1.04591	2.8201	52.1228
9.63636	1.04591	2.8201	51.9208
9.73737	1.04591	2.8201	51.7188
9.83838	1.04591	2.8201	51.5167
9.93939	1.04591	2.8201	51.3146
10.0404	1.04591	2.8201	51.1124
10.1414	1.04591	2.8201	50.9101
10.2424	1.04591	2.8201	50.7076
10.3434	1.04591	2.8201	50.505
10.4444	1.04591	2.8201	50.3022
10.5455	1.04591	2.8201	50.0991
10.6465	1.04591	2.8201	49.8955
10.7475	1.04591	2.8201	49.6914
10.8485	1.04591	2.8201	49.4864
10.9495	1.04591	2.8201	49.2805
11.0505	1.04591	2.8201	49.0731
11.1515	1.04591	2.8201	48.864
11.2525	1.04591	2.8201	48.6526
11.3535	1.04591	2.8201	48.4385
11.4545	1.04591	2.8201	48.2208
11.5556	1.04591	2.8201	47.9991
11.6566	1.04591	2.8201	47.7725
11.7576	1.04591	2.8201	47.5406
11.8586	1.04591	2.8201	47.3027
11.9596	1.04591	2.8201	47.0584
12.0606	1.04591	2.8201	46.8076
12.1616	1.04591	2.8201	46.5503
12.2626	1.04591	2.8201	46.2865
12.3636	1.04591	2.8201	46.0167
12.4646	1.04591	2.8201	45.7411
12.5657	1.04591	2.8201	45.4605
12.6667	1.04591	2.8201	45.1751
12.7677	1.04591	2.8201	44.8855
12.8687	1.04591	2.8201	44.5922
12.9697	1.04591	2.8201	44.2954
13.0707	1.04591	2.8201	43.9956
13.1717	1.04591	2.8201	43.6927
13.2727	1.04591	2.8201	43.3871
13.3737	1.04591	2.8201	43.0786
13.4747	1.04591	2.8201	42.7671
13.5758	1.04591	2.8201	42.4526
13.6768	1.04591	2.8201	42.1346
13.7778	1.04591	2.8201	41.8128
13.8788	1.04591	2.8201	41.4866
13.9798	1.04591	2.8201	41.1554
14.0808	1.04591	2.8201	40.8183
14.1818	1.04591	2.8201	40.4743
14.2828	1.04591	2.8201	40.1222
14.3838	1.04591	2.8201	39.7603
14.4848	1.04591	2.8201	39.3869
14.5859	1.04591	2.8201	38.9996
14.6869	1.04591	2.8201	38.5956
14.7879	1.04591	2.8201	38.1715
14.8889	1.04591	2.8201	37.723
14.9899	1.04591	2.8201	37.2448
15.0909	1.04591	2.8201	36.7304
15.1919	1.04591	2.8201	36.1716
15.2929	1.04591	2.8201	35.5583
15.3939	1.04591	2.8201	34.8779
15.4949	1.04591	2.8201	34.1144
15.596	1.04591	2.8201	33.2477
15.697	1.04591	2.8201	32.2521
15.798	1.04591	2.8201	31.0935
15.899	1.04591	2.8201	29.715
16	1.04591	2.8201	-inf
6	1.06632	2.89528	58.2441
6.10101	1.06632	2.89528	58.1753
6.20202	1.06632	2.89528	58.0967
6.30303	1.06632	2.89528	58.0055
6.40404	1.06632	2.89528	57.9004
6.50505	1.06632	2.89528	57.7812
6.60606	1.06632	2.89528	57.6488
6.70707	1.06632	2.89528	57.5045
6.80808	1.06632	2.89528	57.3498
6.90909	1.06632	2.89528	57.1863
7.0101	1.06632	2.89528	57.0155
7.11111	1.06632	2.89528	56.8385
7.21212	1.06632	2.89528	56.6566
7.31313	1.06632	2.89528	56.4707
7.41414	1.06632	2.89528	56.2816
7.51515	1.06632	2.89528	56.0898
7.61616	1.06632	2.89528	55.896
7.71717	1.06632	2.89528	55.7004
7.81818	1.06632	2.89528	55.5036
7.91919	1.06632	2.89528	55.3057
8.0202	1.06632	2.89528	55.1069
8.12121	1.06632	2.89528	54.9075
8.22222	1.06632	2.89528	54.7075
8.32323	1.06632	2.89528	54.5071
8.42424	1.06632	2.89528	54.3064
8.52525	1.06632	2.89528	54.1054
8.62626	1.06632	2.89528	53.9041
8.72727	1.06632	2.89528	53.7028
8.82828	1.06632	2.89528	53.5012
8.92929	1.06632	2.89528	53.2996
9.0303	1.06632	2.89528	53.0979
9.13131	1.06632	2.89528	52.8961
9.23232	1.06632	2.89528	52.6943
9.33333	1.06632	2.89528	52.4924
9.43434	1.06632	2.89528	52.2905
9.53535	1.06632	2.89528	52.0885
9.63636	1.06632	2.89528	51.8865
9.73737	1.06632	2.89528	51.6844
9.83838	1.06632	2.89528	51.4823
9.93939	1.06632	2.89528	51.2802
10.0404	1.06632	2.89528	51.0779
10.1414	1.06632	2.89528	50.8756
10.2424	1.06632	2.89528	50.6731
10.3434	1.06632	2.89528	50.4704
10.4444	1.06632	2.89528	50.2674
10.5455	1.06632	2.89528	50.0641
10.6465	1.06632	2.89528	49.8604
10.7475	1.06632	2.89528	49.6559
10.8485	1.06632	2.89528	49.4507
10.9495	1.06632	2.89528	49.2443
11.0505	1.06632	2.89528	49.0365
11.1515	1.06632	2.89528	48.8268
11.2525	1.06632	2.89528	48.6147
11.3535	1.06632	2.89528	48.3997
11.4545	1.06632	2.89528	48.1811
11.5556	1.06632	2.89528	47.9583
11.6566	1.06632	2.89528	47.7306
11.7576	1.06632	2.89528	47.4974
11.8586	1.06632	2.89528	47.2583
11.9596	1.06632	2.89528	47.0128
12.0606	1.06632	2.89528	46.7608
12.1616	1.06632	2.89528	46.5023
12.2626	1.06632	2.89528	46.2375
12.3636	1.06632	2.89528	45.9666
12.4646	1.06632	2.89528	45.6903
12.5657	1.06632	2.89528	45.4088
12.6667	1.06632	2.89528	45.1228
12.7677	1.06632	2.89528	44.8327
12.8687	1.06632	2.89528	44.5389
12.9697	1.06632	2.89528	44.2418
13.0707	1.06632	2.89528	43.9416
13.1717	1.06632	2.89528	43.6385
13.2727	1.06632	2.89528	43.3327
13.3737	1.06632	2.89528	43.024
13.4747	1.06632	2.89528	42.7124
13.5758	1.06632	2.89528	42.3978
13.6768	1.06632	2.89528	42.0797
13.7778	1.06632	2.89528	41.7578
13.8788	1.06632	2.89528	41.4316
13.9798	1.06632	2.89528	41.1003
14.0808	1.06632	2.89528	40.7632
14.1818	1.06632	2.89528	40.4192
14.2828	1.06632	2.89528	40.067
14.3838	1.06632	2.89528	39.7052
14.4848	1.06632	2.89528	39.3317
14.5859	1.06632	2.89528	38.9444
14.6869	1.06632	2.89528	38.5405
14.7879	1.06632	2.89528	38.1164
14.8889	1.06632	2.89528	37.6678
14.9899	1.06632	2.89528	37.1896
15.0909	1.06632	2.89528	36.6752
15.1919	1.06632	2.89528	36.1164
15.2929	1.06632	2.89528	35.5031
15.3939	1.06632	2.89528	34.8227
15.4949	1.06632	2.89528	34.0592
15.596	1.06632	2.89528	33.1926
15.697	1.06632	2.89528	32.1969
15.798	1.06632	2.89528	31.0383
15.899	1.06632	2.89528	29.6598
16	1.06632	2.89528	-inf
6	1.08673	2.96942	58.2247
6.10101	1.08673	2.96942	58.153
6.20202	1.08673	2.96942	58.0718
6.30303	1.08673	2.96942	57.9785
6.40404	1.08673	2.96942	57.8717
6.50505	1.08673	2.96942	57.7512
6.60606	1.08673	2.96942	57.6178
6.70707	1.08673	2.96942	57.4727
6.80808	1.08673	2.96942	57.3173
6.90909	1.08673	2.96942	57.1533
7.0101	1.08673	2.96942	56.9821
7.11111	1.08673	2.96942	56.8049
7.21212	1.08673	2.96942	56.6228
7.31313	1.08673	2.96942	56.4367
7.41414	1.08673	2.96942	56.2474
7.51515	1.08673	2.96942	56.0555
7.61616	1.08673	2.96942	55.8616
7.71717	1.08673	2.96942	55.666
7.81818	1.08673	2.96942	55.4691
7.91919	1.08673	2.96942	55.2711
8.0202	1.08673	2.96942	55.0723
8.12121	1.08673	2.96942	54.8728
8.22222	1.08673	2.96942	54.6728
8.32323	1.08673	2.96942	54.4724
8.42424	1.08673	2.96942	54.2717
8.52525	1.08673	2.96942	54.0707
8.62626	1.08673	2.96942	53.8694
8.72727	1.08673	2.96942	53.6681
8.82828	1.08673	2.96942	53.4665
8.92929	1.08673	2.96942	53.2649
9.0303	1.08673	2.96942	53.0632
9.13131	1.08673	2.96942	52.8614
9.23232	1.08673	2.96942	52.6596
9.33333	1.08673	2.96942	52.4577
9.43434	1.08673	2.96942	52.2557
9.53535	1.08673	2.96942	52.0537
9.63636	1.08673	2.96942	51.8517
9.73737	1.08673	2.96942	51.6496
9.83838	1.08673	2.96942	51.4475
9.93939	1.08673	2.96942	51.2453
10.0404	1.08673	2.96942	51.043
10.1414	1.08673	2.96942	50.8406
10.2424	1.08673	2.96942	50.638
10.3434	1.08673	2.96942	50.4352
10.4444	1.08673	2.96942	50.2322
10.5455	1.08673	2.96942	50.0287
10.6465	1.08673	2.96942	49.8247
10.7475	1.08673	2.96942	49.62
10.8485	1.08673	2.96942	49.4144
10.9495	1.08673	2.96942	49.2077
11.0505	1.08673	2.96942	48.9993
11.1515	1.08673	2.96942	48.789
11.2525	1.08673	2.96942	48.5762
11.3535	1.08673	2.96942	48.3604
11.4545	1.08673	2.96942	48.1409
11.5556	1.08673	2.96942	47.9171
11.6566	1.08673	2.96942	47.6884
11.7576	1.08673	2.96942	47.454
11.8586	1.08673	2.96942	47.2137
11.9596	1.08673	2.96942	46.967
12.0606	1.08673	2.96942	46.7139
12.1616	1.08673	2.96942	46.4543
12.2626	1.08673	2.96942	46.1884
12.3636	1.08673	2.96942	45.9167
12.4646	1.08673	2.96942	45.6395
12.5657	1.08673	2.96942	45.3574
12.6667	1.08673	2.96942	45.0707
12.7677	1.08673	2.96942	44.7801
12.8687	1.08673	2.96942	44.4859
12.9697	1.08673	2.96942	44.1884
13.0707	1.08673	2.96942	43.8879
13.1717	1.08673	2.96942	43.5846
13.2727	1.08673	2.96942	43.2786
13.3737	1.08673	2.96942	42.9698
13.4747	1.08673	2.96942	42.6581
13.5758	1.08673	2.96942	42.3433
13.6768	1.08673	2.96942	42.0251
13.7778	1.08673	2.96942	41.7032
13.8788	1.08673	2.96942	41.3769
13.9798	1.08673	2.96942	41.0456
14.0808	1.08673	2.96942	40.7085
14.1818	1.08673	2.96942	40.3644
14.2828	1.08673	2.96942	40.0123
14.3838	1.08673	2.96942	39.6504
14.4848	1.08673	2.96942	39.2769
14.5859	1.08673	2.96942	38.8896
14.6869	1.08673	2.96942	38.4857
14.7879	1.08673	2.96942	38.0615
14.8889	1.08673	2.96942	37.613
14.9899	1.08673	2.96942	37.1348
15.0909	1.08673	2.96942	36.6203
15.1919	1.08673	2.96942	36.0615
15.2929	1.08673	2.96942	35.4483
15.3939	1.08673	2.96942	34.7678
15.4949	1.08673	2.96942	34.0044
15.596	1.08673	2.96942	33.1377
15.697	1.08673	2.96942	32.1421
15.798	1.08673	2.96942	30.9835
15.899	1.08673	2.96942	29.605
16	1.08673	2.96942	-inf
6	1.10713	3.04295	58.2036
6.10101	1.10713	3.04295	58.1292
6.20202	1.10713	3.04295	58.0457
6.30303	1.10713	3.04295	57.9505
6.40404	1.10713	3.04295	57.8422
6.50505	1.10713	3.04295	57.7205
6.60606	1.10713	3.04295	57.5861
6.70707	1.10713	3.04295	57.4402
6.80808	1.10713	3.04295	57.2843
6.90909	1.10713	3.04295	57.1199
7.0101	1.10713	3.04295	56.9483
7.11111	1.10713	3.04295	56.7708
7.21212	1.10713	3.04295	56.5885
7.31313	1.10713	3.04295	56.4022
7.41414	1.10713	3.04295	56.2128
7.51515	1.10713	3.04295	56.0208
7.61616	1.10713	3.04295	55.8268
7.71717	1.10713	3.04295	55.6312
7.81818	1.10713	3.04295	55.4342
7.91919	1.10713	3.04295	55.2362
8.0202	1.10713	3.04295	55.0374
8.12121	1.10713	3.04295	54.8379
8.22222	1.10713	3.04295	54.6379
8.32323	1.10713	3.04295	54.4374
8.42424	1.10713	3.04295	54.2367
8.52525	1.10713	3.04295	54.0356
8.62626	1.10713	3.04295	53.8344
8.72727	1.10713	3.04295	53.633
8.82828	1.10713	3.04295	53.4315
8.92929	1.10713	3.04295	53.2299
9.0303	1.10713	3.04295	53.0281
9.13131	1.10713	3.04295	52.8263
9.23232	1.10713	3.04295	52.6245
9.33333	1.10713	3.04295	52.4226
9.43434	1.10713	3.04295	52.2206
9.53535	1.10713	3.04295	52.0186
9.63636	1.10713	3.04295	51.8166
9.73737	1.10713	3.04295	51.6145
9.83838	1.10713	3.04295	51.4123
9.93939	1.10713	3.04295	51.2101
10.0404	1.10713	3.04295	51.0078
10.1414	1.10713	3.04295	50.8053
10.2424	1.10713	3.04295	50.6026
10.3434	1.10713	3.04295	50.3997
10.4444	1.10713	3.04295	50.1965
10.5455	1.10713	3.04295	49.9929
10.6465	1.10713	3.04295	49.7887
10.7475	1.10713	3.04295	49.5838
10.8485	1.10713	3.04295	49.3778
10.9495	1.10713	3.04295	49.1707
11.0505	1.10713	3.04295	48.9618
11.1515	1.10713	3.04295	48.751
11.2525	1.10713	3.04295	48.5375
11.3535	1.10713	3.04295	48.3209
11.4545	1.10713	3.04295	48.1005
11.5556	1.10713	3.04295	47.8757
11.6566	1.10713	3.04295	47.6459
11.7576	1.10713	3.04295	47.4105
11.8586	1.10713	3.04295	47.169
11.9596	1.10713	3.04295	46.9212
12.0606	1.10713	3.04295	46.6669
12.1616	1.10713	3.04295	46.4063
12.2626	1.10713	3.04295	46.1395
12.3636	1.10713	3.04295	45.8669
12.4646	1.10713	3.04295	45.5889
12.5657	1.10713	3.04295	45.3061
12.6667	1.10713	3.04295	45.0189
12.7677	1.10713	3.04295	44.7278
12.8687	1.10713	3.04295	44.4332
12.9697	1.10713	3.04295	44.1353
13.0707	1.10713	3.04295	43.8346
13.1717	1.10713	3.04295	43.5311
13.2727	1.10713	3.04295	43.2248
13.3737	1.10713	3.04295	42.9159
13.4747	1.10713	3.04295	42.6041
13.5758	1.10713	3.04295	42.2892
13.6768	1.10713	3.04295	41.971
13.7778	1.10713	3.04295	41.649
13.8788	1.10713	3.04295	41.3226
13.9798	1.10713	3.04295	40.9913
14.0808	1.10713	3.04295	40.6541
14.1818	1.10713	3.04295	40.3101
14.2828	1.10713	3.04295	39.9579
14.3838	1.10713	3.04295	39.596
14.4848	1.10713	3.04295	39.2225
14.5859	1.10713	3.04295	38.8352
14.6869	1.10713	3.04295	38.4312
14.7879	1.10713	3.04295	38.0071
14.8889	1.10713	3.04295	37.5586
14.9899	1.10713	3.04295	37.0803
15.0909	1.10713	3.04295	36.5659
15.1919	1.10713	3.04295	36.0071
15.2929	1.10713	3.04295	35.3938
15.3939	1.10713	3.04295	34.7134
15.4949	1.10713	3.04295	33.9499
15.596	1.10713	3.04295	33.0833
15.697	1.10713	3.04295	32.0876
15.798	1.10713	3.04295	30.929
15.899	1.10713	3.04295	29.5505
16	1.10713	3.04295	-inf
6	1.12754	3.13083	58.1859
6.10101	1.12754	3.13083	58.1093
6.20202	1.12754	3.13083	58.0238
6.30303	1.12754	3.13083	57.927
6.40404	1.12754	3.13083	57.8174
6.50505	1.12754	3.13083	57.6947
6.60606	1.12754	3.13083	57.5595
6.70707	1.12754	3.13083	57.413
6.80808	1.12754	3.13083	57.2567
6.90909	1.12754	3.13083	57.0919
7.0101	1.12754	3.13083	56.92
7.11111	1.12754	3.13083	56.7423
7.21212	1.12754	3.13083	56.5598
7.31313	1.12754	3.13083	56.3734
7.41414	1.12754	3.13083	56.1838
7.51515	1.12754	3.13083	55.9918
7.61616	1.12754	3.13083	55.7977
7.71717	1.12754	3.13083	55.602
7.81818	1.12754	3.13083	55.405
7.91919	1.12754	3.13083	55.2069
8.0202	1.12754	3.13083	55.0081
8.12121	1.12754	3.13083	54.8085
8.22222	1.12754	3.13083	54.6085
8.32323	1.12754	3.13083	54.4081
8.42424	1.12754	3.13083	54.2073
8.52525	1.12754	3.13083	54.0063
8.62626	1.12754	3.13083	53.805
8.72727	1.12754	3.13083	53.6036
8.82828	1.12754	3.13083	53.4021
8.92929	1.12754	3.13083	53.2005
9.0303	1.12754	3.13083	52.9987
9.13131	1.12754	3.13083	52.7969
9.23232	1.12754	3.13083	52.5951
9.33333	1.12754	3.13083	52.3932
9.43434	1.12754	3.13083	52.1912
9.53535	1.12754	3.13083	51.9892
9.63636	1.12754	3.13083	51.7871
9.73737	1.12754	3.13083	51.585
9.83838	1.12754	3.13083	51.3828
9.93939	1.12754	3.13083	51.1806
10.0404	1.12754	3.13083	50.9782
10.1414	1.12754	3.13083	50.7756
10.2424	1.12754	3.13083	50.5729
10.3434	1.12754	3.13083	50.3699
10.4444	1.12754	3.13083	50.1666
10.5455	1.12754	3.13083	49.9628
10.6465	1.12754	3.13083	49.7584
10.7475	1.12754	3.13083	49.5532
10.8485	1.12754	3.13083	49.3469
10.9495	1.12754	3.13083	49.1393
11.0505	1.12754	3.13083	48.93
11.1515	1.12754	3.13083	48.7186
11.2525	1.12754	3.13083	48.5045
11.3535	1.12754	3.13083	48.2871
11.4545	1.12754	3.13083	48.0658
11.5556	1.12754	3.13083	47.8401
11.6566	1.12754	3.13083	47.6092
11.7576	1.12754	3.13083	47.3727
11.8586	1.12754	3.13083	47.1301
11.9596	1.12754	3.13083	46.8812
12.0606	1.12754	3.13083	46.6258
12.1616	1.12754	3.13083	46.3642
12.2626	1.12754	3.13083	46.0964
12.3636	1.12754	3.13083	45.823
12.4646	1.12754	3.13083	45.5442
12.5657	1.12754	3.13083	45.2608
12.6667	1.12754	3.13083	44.973
12.7677	1.12754	3.13083	44.6814
12.8687	1.12754	3.13083	44.3864
12.9697	1.12754	3.13083	44.0883
13.0707	1.12754	3.13083	43.7872
13.1717	1.12754	3.13083	43.4835
13.2727	1.12754	3.13083	43.1771
13.3737	1.12754	3.13083	42.868
13.4747	1.12754	3.13083	42.556
13.5758	1.12754	3.13083	42.2411
13.6768	1.12754	3.13083	41.9228
13.7778	1.12754	3.13083	41.6007
13.8788	1.12754	3.13083	41.2744
13.9798	1.12754	3.13083	40.943
14.0808	1.12754	3.13083	40.6058
14.1818	1.12754	3.13083	40.2617
14.2828	1.12754	3.13083	39.9095
14.3838	1.12754	3.13083	39.5476
14.4848	1.12754	3.13083	39.1741
14.5859	1.12754	3.13083	38.7868
14.6869	1.12754	3.13083	38.3828
14.7879	1.12754	3.13083	37.9587
14.8889	1.12754	3.13083	37.5101
14.9899	1.12754	3.13083	37.0319
15.0909	1.12754	3.13083	36.5175
15.1919	1.12754	3.13083	35.9587
15.2929	1.12754	3.13083	35.3454
15.3939	1.12754	3.13083	34.6649
15.4949	1.12754	3.13083	33.9015
15.596	1.12754	3.13083	33.0348
15.697	1.12754	3.13083	32.0392
15.798	1.12754	3.13083	30.8806
15.899	1.12754	3.13083	29.5021
16	1.12754	3.13083	-inf
6	1.14795	3.18952	58.1571
6.10101	1.14795	3.18952	58.0782
6.20202	1.14795	3.18952	57.9907
6.30303	1.14795	3.18952	57.8922
6.40404	1.14795	3.18952	57.7812
6.50505	1.14795	3.18952	57.6574
6.60606	1.14795	3.18952	57.5214
6.70707	1.14795	3.18952	57.3742
6.80808	1.14795	3.18952	57.2173
6.90909	1.14795	3.18952	57.0521
7.0101	1.14795	3.18952	56.8799
7.11111	1.14795	3.18952	56.702
7.21212	1.14795	3.18952	56.5193
7.31313	1.14795	3.18952	56.3327
7.41414	1.14795	3.18952	56.1431
7.51515	1.14795	3.18952	55.9509
7.61616	1.14795	3.18952	55.7568
7.71717	1.14795	3.18952	55.561
7.81818	1.14795	3.18952	55.3639
7.91919	1.14795	3.18952	55.1659
8.0202	1.14795	3.18952	54.967
8.12121	1.14795	3.18952	54.7674
8.22222	1.14795	3.18952	54.5674
8.32323	1.14795	3.18952	54.3669
8.42424	1.14795	3.18952	54.1662
8.52525	1.14795	3.18952	53.9651
8.62626	1.14795	3.18952	53.7639
8.72727	1.14795	3.18952	53.5625
8.82828	1.14795	3.18952	53.3609
8.92929	1.14795	3.18952	53.1593
9.0303	1.14795	3.18952	52.9575
9.13131	1.14795	3.18952	52.7557
9.23232	1.14795	3.18952	52.5539
9.33333	1.14795	3.18952	52.3519
9.43434	1.14795	3.18952	52.15
9.53535	1.14795	3.18952	51.9479
9.63636	1.14795	3.18952	51.7459
9.73737	1.14795	3.18952	51.5437
9.83838	1.14795	3.18952	51.3415
9.93939	1.14795	3.18952	51.1392
10.0404	1.14795	3.18952	50.9367
10.1414	1.14795	3.18952	50.7341
10.2424	1.14795	3.18952	50.5313
10.3434	1.14795	3.18952	50.3282
10.4444	1.14795	3.18952	50.1247
10.5455	1.14795	3.18952	49.9208
10.6465	1.14795	3.18952	49.7161
10.7475	1.14795	3.18952	49.5107
10.8485	1.14795	3.18952	49.3041
10.9495	1.14795	3.18952	49.0961
11.0505	1.14795	3.18952	48.8863
11.1515	1.14795	3.18952	48.6743
11.2525	1.14795	3.18952	48.4595
11.3535	1.14795	3.18952	48.2414
11.4545	1.14795	3.18952	48.0193
11.5556	1.14795	3.18952	47.7926
11.6566	1.14795	3.18952	47.5608
11.7576	1.14795	3.18952	47.3232
11.8586	1.14795	3.18952	47.0796
11.9596	1.14795	3.18952	46.8296
12.0606	1.14795	3.18952	46.5733
12.1616	1.14795	3.18952	46.3107
12.2626	1.14795	3.18952	46.042
12.3636	1.14795	3.18952	45.7678
12.4646	1.14795	3.18952	45.4884
12.5657	1.14795	3.18952	45.2043
12.6667	1.14795	3.18952	44.9161
12.7677	1.14795	3.18952	44.6241
12.8687	1.14795	3.18952	44.3287
12.9697	1.14795	3.18952	44.0303
13.0707	1.14795	3.18952	43.729
13.1717	1.14795	3.18952	43.4251
13.2727	1.14795	3.18952	43.1185
13.3737	1.14795	3.18952	42.8093
13.4747	1.14795	3.18952	42.4972
13.5758	1.14795	3.18952	42.1822
13.6768	1.14795	3.18952	41.8638
13.7778	1.14795	3.18952	41.5417
13.8788	1.14795	3.18952	41.2153
13.9798	1.14795	3.18952	40.8839
14.0808	1.14795	3.18952	40.5467
14.1818	1.14795	3.18952	40.2026
14.2828	1.14795	3.18952	39.8503
14.3838	1.14795	3.18952	39.4884
14.4848	1.14795	3.18952	39.115
14.5859	1.14795	3.18952	38.7276
14.6869	1.14795	3.18952	38.3236
14.7879	1.14795	3.18952	37.8995
14.8889	1.14795	3.18952	37.4509
14.9899	1.14795	3.18952	36.9727
15.0909	1.14795	3.18952	36.4583
15.1919	1.14795	3.18952	35.8995
15.2929	1.14795	3.18952	35.2862
15.3939	1.14795	3.18952	34.6058
15.4949	1.14795	3.18952	33.8423
15.596	1.14795	3.18952	32.9756
15.697	1.14795	3.18952	31.98
15.798	1.14795	3.18952	30.8214
15.899	1.14795	3.18952	29.4429
16	1.14795	3.18952	-inf
6	1.16836	3.27761	58.1371
6.10101	1.16836	3.27761	58.0563
6.20202	1.16836	3.27761	57.9673
6.30303	1.16836	3.27761	57.8674
6.40404	1.16836	3.27761	57.7554
6.50505	1.16836	3.27761	57.6308
6.60606	1.16836	3.27761	57.4941
6.70707	1.16836	3.27761	57.3464
6.80808	1.16836	3.27761	57.1891
6.90909	1.16836	3.27761	57.0236
7.0101	1.16836	3.27761	56.8512
7.11111	1.16836	3.27761	56.673
7.21212	1.16836	3.27761	56.4902
7.31313	1.16836	3.27761	56.3035
7.41414	1.16836	3.27761	56.1138
7.51515	1.16836	3.27761	55.9215
7.61616	1.16836	3.27761	55.7273
7.71717	1.16836	3.27761	55.5315
7.81818	1.16836	3.27761	55.3344
7.91919	1.16836	3.27761	55.1363
8.0202	1.16836	3.27761	54.9374
8.12121	1.16836	3.27761	54.7378
8.22222	1.16836	3.27761	54.5378
8.32323	1.16836	3.27761	54.3373
8.42424	1.16836	3.27761	54.1365
8.52525	1.16836	3.27761	53.9355
8.62626	1.16836	3.27761	53.7342
8.72727	1.16836	3.27761	53.5328
8.82828	1.16836	3.27761	53.3313
8.92929	1.16836	3.27761	53.1296
9.0303	1.16836	3.27761	52.9279
9.13131	1.16836	3.27761	52.7261
9.23232	1.16836	3.27761	52.5242
9.33333	1.16836	3.27761	52.3222
9.43434	1.16836	3.27761	52.1203
9.53535	1.16836	3.27761	51.9182
9.63636	1.16836	3.27761	51.7161
9.73737	1.16836	3.27761	51.514
9.83838	1.16836	3.27761	51.3117
9.93939	1.16836	3.27761	51.1093
10.0404	1.16836	3.27761	50.9069
10.1414	1.16836	3.27761	50.7042
10.2424	1.16836	3.27761	50.5013
10.3434	1.16836	3.27761	50.2981
10.4444	1.16836	3.27761	50.0945
10.5455	1.16836	3.27761	49.8903
10.6465	1.16836	3.27761	49.6855
10.7475	1.16836	3.27761	49.4797
10.8485	1.16836	3.27761	49.2728
10.9495	1.16836	3.27761	49.0645
11.0505	1.16836	3.27761	48.8542
11.1515	1.16836	3.27761	48.6416
11.2525	1.16836	3.27761	48.4262
11.3535	1.16836	3.27761	48.2073
11.4545	1.16836	3.27761	47.9844
11.5556	1.16836	3.27761	47.7568
11.6566	1.16836	3.27761	47.5239
11.7576	1.16836	3.27761	47.2854
11.8586	1.16836	3.27761	47.0407
11.9596	1.16836	3.27761	46.7897
12.0606	1.16836	3.27761	46.5323
12.1616	1.16836	3.27761	46.2687
12.2626	1.16836	3.27761	45.9992
12.3636	1.16836	3.27761	45.7242
12.4646	1.16836	3.27761	45.4441
12.5657	1.16836	3.27761	45.1594
12.6667	1.16836	3.27761	44.8706
12.7677	1.16836	3.27761	44.5782
12.8687	1.16836	3.27761	44.2824
12.9697	1.16836	3.27761	43.9837
13.0707	1.16836	3.27761	43.6822
13.1717	1.16836	3.27761	43.3781
13.2727	1.16836	3.27761	43.0713
13.3737	1.16836	3.27761	42.762
13.4747	1.16836	3.27761	42.4498
13.5758	1.16836	3.27761	42.1347
13.6768	1.16836	3.27761	41.8163
13.7778	1.16836	3.27761	41.4941
13.8788	1.16836	3.27761	41.1677
13.9798	1.16836	3.27761	40.8362
14.0808	1.16836	3.27761	40.499
14.1818	1.16836	3.27761	40.1549
14.2828	1.16836	3.27761	39.8026
14.3838	1.16836	3.27761	39.4407
14.4848	1.16836	3.27761	39.0672
14.5859	1.16836	3.27761	38.6799
14.6869	1.16836	3.27761	38.2759
14.7879	1.16836	3.27761	37.8517
14.8889	1.16836	3.27761	37.4032
14.9899	1.16836	3.27761	36.9249
15.0909	1.16836	3.27761	36.4105
15.1919	1.16836	3.27761	35.8517
15.2929	1.16836	3.27761	35.2384
15.3939	1.16836	3.27761	34.558
15.4949	1.16836	3.27761	33.7945
15.596	1.16836	3.27761	32.9278
15.697	1.16836	3.27761	31.9322
15.798	1.16836	3.27761	30.7736
15.899	1.16836	3.27761	29.3951
16	1.16836	3.27761	-inf
6	1.18877	3.35178	58.1114
6.10101	1.18877	3.35178	58.0288
6.20202	1.18877	3.35178	57.9382
6.30303	1.18877	3.35178	57.837
6.40404	1.18877	3.35178	57.7239
6.50505	1.18877	3.35178	57.5984
6.60606	1.18877	3.35178	57.4611
6.70707	1.18877	3.35178	57.3129
6.80808	1.18877	3.35178	57.1552
6.90909	1.18877	3.35178	56.9894
7.0101	1.18877	3.35178	56.8167
7.11111	1.18877	3.35178	56.6383
7.21212	1.18877	3.35178	56.4553
7.31313	1.18877	3.35178	56.2686
7.41414	1.18877	3.35178	56.0787
7.51515	1.18877	3.35178	55.8864
7.61616	1.18877	3.35178	55.6921
7.71717	1.18877	3.35178	55.4963
7.81818	1.18877	3.35178	55.2991
7.91919	1.18877	3.35178	55.101
8.0202	1.18877	3.35178	54.9021
8.12121	1.18877	3.35178	54.7025
8.22222	1.18877	3.35178	54.5024
8.32323	1.18877	3.35178	54.302
8.42424	1.18877	3.35178	54.1012
8.52525	1.18877	3.35178	53.9001
8.62626	1.18877	3.35178	53.6988
8.72727	1.18877	3.35178	53.4974
8.82828	1.18877	3.35178	53.2959
8.92929	1.18877	3.35178	53.0942
9.0303	1.18877	3.35178	52.8925
9.13131	1.18877	3.35178	52.6906
9.23232	1.18877	3.35178	52.4888
9.33333	1.18877	3.35178	52.2868
9.43434	1.18877	3.35178	52.0848
9.53535	1.18877	3.35178	51.8828
9.63636	1.18877	3.35178	51.6807
9.73737	1.18877	3.35178	51.4785
9.83838	1.18877	3.35178	51.2762
9.93939	1.18877	3.35178	51.0738
10.0404	1.18877	3.35178	50.8712
10.1414	1.18877	3.35178	50.6685
10.2424	1.18877	3.35178	50.4655
10.3434	1.18877	3.35178	50.2622
10.4444	1.18877	3.35178	50.0584
10.5455	1.18877	3.35178	49.8541
10.6465	1.18877	3.35178	49.649
10.7475	1.18877	3.35178	49.443
10.8485	1.18877	3.35178	49.2358
10.9495	1.18877	3.35178	49.027
11.0505	1.18877	3.35178	48.8163
11.1515	1.18877	3.35178	48.6032
11.2525	1.18877	3.35178	48.3871
11.3535	1.18877	3.35178	48.1675
11.4545	1.18877	3.35178	47.9437
11.5556	1.18877	3.35178	47.7152
11.6566	1.18877	3.35178	47.4814
11.7576	1.18877	3.35178	47.2418
11.8586	1.18877	3.35178	46.9961
11.9596	1.18877	3.35178	46.7441
12.0606	1.18877	3.35178	46.4858
12.1616	1.18877	3.35178	46.2213
12.2626	1.18877	3.35178	45.951
12.3636	1.18877	3.35178	45.6752
12.4646	1.18877	3.35178	45.3945
12.5657	1.18877	3.35178	45.1092
12.6667	1.18877	3.35178	44.82
12.7677	1.18877	3.35178	44.5271
12.8687	1.18877	3.35178	44.231
12.9697	1.18877	3.35178	43.932
13.0707	1.18877	3.35178	43.6303
13.1717	1.18877	3.35178	43.326
13.2727	1.18877	3.35178	43.0191
13.3737	1.18877	3.35178	42.7096
13.4747	1.18877	3.35178	42.3974
13.5758	1.18877	3.35178	42.0822
13.6768	1.18877	3.35178	41.7637
13.7778	1.18877	3.35178	41.4415
13.8788	1.18877	3.35178	41.115
13.9798	1.18877	3.35178	40.7835
14.0808	1.18877	3.35178	40.4462
14.1818	1.18877	3.35178	40.1021
14.2828	1.18877	3.35178	39.7498
14.3838	1.18877	3.35178	39.3879
14.4848	1.18877	3.35178	39.0144
14.5859	1.18877	3.35178	38.627
14.6869	1.18877	3.35178	38.223
14.7879	1.18877	3.35178	37.7989
14.8889	1.18877	3.35178	37.3503
14.9899	1.18877	3.35178	36.8721
15.0909	1.18877	3.35178	36.3576
15.1919	1.18877	3.35178	35.7988
15.2929	1.18877	3.35178	35.1855
15.3939	1.18877	3.35178	34.5051
15.4949	1.18877	3.35178	33.7416
15.596	1.18877	3.35178	32.875
15.697	1.18877	3.35178	31.8794
15.798	1.18877	3.35178	30.7208
15.899	1.18877	3.35178	29.3423
16	1.18877	3.35178	-inf
6	1.20917	3.4268	58.0849
6.10101	1.20917	3.4268	58.0007
6.20202	1.20917	3.4268	57.9086
6.30303	1.20917	3.4268	57.8063
6.40404	1.20917	3.4268	57.6922
6.50505	1.20917	3.4268	57.5659
6.60606	1.20917	3.4268	57.428
6.70707	1.20917	3.4268	57.2793
6.80808	1.20917	3.4268	57.1213
6.90909	1.20917	3.4268	56.9551
7.0101	1.20917	3.4268	56.7822
7.11111	1.20917	3.4268	56.6037
7.21212	1.20917	3.4268	56.4206
7.31313	1.20917	3.4268	56.2337
7.41414	1.20917	3.4268	56.0437
7.51515	1.20917	3.4268	55.8514
7.61616	1.20917	3.4268	55.657
7.71717	1.20917	3.4268	55.4611
7.81818	1.20917	3.4268	55.264
7.91919	1.20917	3.4268	55.0658
8.0202	1.20917	3.4268	54.8669
8.12121	1.20917	3.4268	54.6673
8.22222	1.20917	3.4268	54.4672
8.32323	1.20917	3.4268	54.2667
8.42424	1.20917	3.4268	54.0659
8.52525	1.20917	3.4268	53.8648
8.62626	1.20917	3.4268	53.6636
8.72727	1.20917	3.4268	53.4621
8.82828	1.20917	3.4268	53.2606
8.92929	1.20917	3.4268	53.0589
9.0303	1.20917	3.4268	52.8572
9.13131	1.20917	3.4268	52.6553
9.23232	1.20917	3.4268	52.4534
9.33333	1.20917	3.4268	52.2515
9.43434	1.20917	3.4268	52.0495
9.53535	1.20917	3.4268	51.8474
9.63636	1.20917	3.4268	51.6453
9.73737	1.20917	3.4268	51.443
9.83838	1.20917	3.4268	51.2407
9.93939	1.20917	3.4268	51.0383
10.0404	1.20917	3.4268	50.8357
10.1414	1.20917	3.4268	50.6329
10.2424	1.20917	3.4268	50.4298
10.3434	1.20917	3.4268	50.2263
10.4444	1.20917	3.4268	50.0225
10.5455	1.20917	3.4268	49.818
10.6465	1.20917	3.4268	49.6127
10.7475	1.20917	3.4268	49.4064
10.8485	1.20917	3.4268	49.1988
10.9495	1.20917	3.4268	48.9897
11.0505	1.20917	3.4268	48.7785
11.1515	1.20917	3.4268	48.5648
11.2525	1.20917	3.4268	48.3481
11.3535	1.20917	3.4268	48.1277
11.4545	1.20917	3.4268	47.9032
11.5556	1.20917	3.4268	47.6738
11.6566	1.20917	3.4268	47.439
11.7576	1.20917	3.4268	47.1985
11.8586	1.20917	3.4268	46.9518
11.9596	1.20917	3.4268	46.6988
12.0606	1.20917	3.4268	46.4396
12.1616	1.20917	3.4268	46.1742
12.2626	1.20917	3.4268	45.9031
12.3636	1.20917	3.4268	45.6266
12.4646	1.20917	3.4268	45.3452
12.5657	1.20917	3.4268	45.0594
12.6667	1.20917	3.4268	44.7696
12.7677	1.20917	3.4268	44.4764
12.8687	1.20917	3.4268	44.18
12.9697	1.20917	3.4268	43.8807
13.0707	1.20917	3.4268	43.5788
13.1717	1.20917	3.4268	43.2743
13.2727	1.20917	3.4268	42.9672
13.3737	1.20917	3.4268	42.6576
13.4747	1.20917	3.4268	42.3453
13.5758	1.20917	3.4268	42.03
13.6768	1.20917	3.4268	41.7115
13.7778	1.20917	3.4268	41.3892
13.8788	1.20917	3.4268	41.0627
13.9798	1.20917	3.4268	40.7312
14.0808	1.20917	3.4268	40.3939
14.1818	1.20917	3.4268	40.0497
14.2828	1.20917	3.4268	39.6975
14.3838	1.20917	3.4268	39.3355
14.4848	1.20917	3.4268	38.962
14.5859	1.20917	3.4268	38.5747
14.6869	1.20917	3.4268	38.1706
14.7879	1.20917	3.4268	37.7465
14.8889	1.20917	3.4268	37.2979
14.9899	1.20917	3.4268	36.8197
15.0909	1.20917	3.4268	36.3052
15.1919	1.20917	3.4268	35.7464
15.2929	1.20917	3.4268	35.1331
15.3939	1.20917	3.4268	34.4527
15.4949	1.20917	3.4268	33.6892
15.596	1.20917	3.4268	32.8226
15.697	1.20917	3.4268	31.827
15.798	1.20917	3.4268	30.6684
15.899	1.20917	3.4268	29.2899
16	1.20917	3.4268	-inf
6	1.22958	3.48868	58.053
6.10101	1.22958	3.48868	57.9672
6.20202	1.22958	3.48868	57.8737
6.30303	1.22958	3.48868	57.7702
6.40404	1.22958	3.48868	57.6551
6.50505	1.22958	3.48868	57.5281
6.60606	1.22958	3.48868	57.3895
6.70707	1.22958	3.48868	57.2404
6.80808	1.22958	3.48868	57.082
6.90909	1.22958	3.48868	56.9155
7.0101	1.22958	3.48868	56.7424
7.11111	1.22958	3.48868	56.5637
7.21212	1.22958	3.48868	56.3804
7.31313	1.22958	3.48868	56.1934
7.41414	1.22958	3.48868	56.0034
7.51515	1.22958	3.48868	55.811
7.61616	1.22958	3.48868	55.6166
7.71717	1.22958	3.48868	55.4206
7.81818	1.22958	3.48868	55.2235
7.91919	1.22958	3.48868	55.0253
8.0202	1.22958	3.48868	54.8263
8.12121	1.22958	3.48868	54.6267
8.22222	1.22958	3.48868	54.4266
8.32323	1.22958	3.48868	54.2261
8.42424	1.22958	3.48868	54.0253
8.52525	1.22958	3.48868	53.8242
8.62626	1.22958	3.48868	53.6229
8.72727	1.22958	3.48868	53.4215
8.82828	1.22958	3.48868	53.2199
8.92929	1.22958	3.48868	53.0183
9.0303	1.22958	3.48868	52.8165
9.13131	1.22958	3.48868	52.6147
9.23232	1.22958	3.48868	52.4128
9.33333	1.22958	3.48868	52.2108
9.43434	1.22958	3.48868	52.0088
9.53535	1.22958	3.48868	51.8067
9.63636	1.22958	3.48868	51.6045
9.73737	1.22958	3.48868	51.4023
9.83838	1.22958	3.48868	51.1999
9.93939	1.22958	3.48868	50.9974
10.0404	1.22958	3.48868	50.7948
10.1414	1.22958	3.48868	50.5919
10.2424	1.22958	3.48868	50.3887
10.3434	1.22958	3.48868	50.1851
10.4444	1.22958	3.48868	49.9811
10.5455	1.22958	3.48868	49.7764
10.6465	1.22958	3.48868	49.5709
10.7475	1.22958	3.48868	49.3644
10.8485	1.22958	3.48868	49.1565
10.9495	1.22958	3.48868	48.9469
11.0505	1.22958	3.48868	48.7352
11.1515	1.22958	3.48868	48.521
11.2525	1.22958	3.48868	48.3036
11.3535	1.22958	3.48868	48.0826
11.4545	1.22958	3.48868	47.8572
11.5556	1.22958	3.48868	47.627
11.6566	1.22958	3.48868	47.3914
11.7576	1.22958	3.48868	47.1499
11.8586	1.22958	3.48868	46.9022
11.9596	1.22958	3.48868	46.6483
12.0606	1.22958	3.48868	46.3882
12.1616	1.22958	3.48868	46.122
12.2626	1.22958	3.48868	45.8501
12.3636	1.22958	3.48868	45.5729
12.4646	1.22958	3.48868	45.2909
12.5657	1.22958	3.48868	45.0046
12.6667	1.22958	3.48868	44.7145
12.7677	1.22958	3.48868	44.4209
12.8687	1.22958	3.48868	44.1241
12.9697	1.22958	3.48868	43.8246
13.0707	1.22958	3.48868	43.5225
13.1717	1.22958	3.48868	43.2178
13.2727	1.22958	3.48868	42.9106
13.3737	1.22958	3.48868	42.6009
13.4747	1.22958	3.48868	42.2885
13.5758	1.22958	3.48868	41.9732
13.6768	1.22958	3.48868	41.6546
13.7778	1.22958	3.48868	41.3323
13.8788	1.22958	3.48868	41.0057
13.9798	1.22958	3.48868	40.6742
14.0808	1.22958	3.48868	40.3369
14.1818	1.22958	3.48868	39.9927
14.2828	1.22958	3.48868	39.6404
14.3838	1.22958	3.48868	39.2784
14.4848	1.22958	3.48868	38.9049
14.5859	1.22958	3.48868	38.5176
14.6869	1.22958	3.48868	38.1136
14.7879	1.22958	3.48868	37.6894
14.8889	1.22958	3.48868	37.2408
14.9899	1.22958	3.48868	36.7626
15.0909	1.22958	3.48868	36.2481
15.1919	1.22958	3.48868	35.6893
15.2929	1.22958	3.48868	35.076
15.3939	1.22958	3.48868	34.3956
15.4949	1.22958	3.48868	33.6321
15.596	1.22958	3.48868	32.7655
15.697	1.22958	3.48868	31.7699
15.798	1.22958	3.48868	30.6113
15.899	1.22958	3.48868	29.2328
16	1.22958	3.48868	-inf
6	1.24999	3.58023	58.0304
6.10101	1.24999	3.58023	57.9433
6.20202	1.24999	3.58023	57.8487
6.30303	1.24999	3.58023	57.7442
6.40404	1.24999	3.58023	57.6284
6.50505	1.24999	3.58023	57.5008
6.60606	1.24999	3.58023	57.3618
6.70707	1.24999	3.58023	57.2123
6.80808	1.24999	3.58023	57.0535
6.90909	1.24999	3.58023	56.8869
7.0101	1.24999	3.58023	56.7136
7.11111	1.24999	3.58023	56.5347
7.21212	1.24999	3.58023	56.3514
7.31313	1.24999	3.58023	56.1643
7.41414	1.24999	3.58023	55.9742
7.51515	1.24999	3.58023	55.7817
7.61616	1.24999	3.58023	55.5873
7.71717	1.24999	3.58023	55.3913
7.81818	1.24999	3.58023	55.1941
7.91919	1.24999	3.58023	54.9959
8.0202	1.24999	3.58023	54.7969
8.12121	1.24999	3.58023	54.5973
8.22222	1.24999	3.58023	54.3972
8.32323	1.24999	3.58023	54.1966
8.42424	1.24999	3.58023	53.9958
8.52525	1.24999	3.58023	53.7947
8.62626	1.24999	3.58023	53.5935
8.72727	1.24999	3.58023	53.392
8.82828	1.24999	3.58023	53.1905
8.92929	1.24999	3.58023	52.9888
9.0303	1.24999	3.58023	52.787
9.13131	1.24999	3.58023	52.5852
9.23232	1.24999	3.58023	52.3833
9.33333	1.24999	3.58023	52.1813
9.43434	1.24999	3.58023	51.9792
9.53535	1.24999	3.58023	51.7771
9.63636	1.24999	3.58023	51.5749
9.73737	1.24999	3.58023	51.3727
9.83838	1.24999	3.58023	51.1703
9.93939	1.24999	3.58023	50.9677
10.0404	1.24999	3.58023	50.765
10.1414	1.24999	3.58023	50.5621
10.2424	1.24999	3.58023	50.3588
10.3434	1.24999	3.58023	50.1551
10.4444	1.24999	3.58023	49.9509
10.5455	1.24999	3.58023	49.7461
10.6465	1.24999	3.58023	49.5404
10.7475	1.24999	3.58023	49.3335
10.8485	1.24999	3.58023	49.1253
10.9495	1.24999	3.58023	48.9153
11.0505	1.24999	3.58023	48.7032
11.1515	1.24999	3.58023	48.4884
11.2525	1.24999	3.58023	48.2704
11.3535	1.24999	3.58023	48.0486
11.4545	1.24999	3.58023	47.8225
11.5556	1.24999	3.58023	47.5914
11.6566	1.24999	3.58023	47.3548
11.7576	1.24999	3.58023	47.1123
11.8586	1.24999	3.58023	46.8637
11.9596	1.24999	3.58023	46.6088
12.0606	1.24999	3.58023	46.3478
12.1616	1.24999	3.58023	46.0807
12.2626	1.24999	3.58023	45.808
12.3636	1.24999	3.58023	45.5301
12.4646	1.24999	3.58023	45.2475
12.5657	1.24999	3.58023	44.9607
12.6667	1.24999	3.58023	44.6701
12.7677	1.24999	3.58023	44.3761
12.8687	1.24999	3.58023	44.0791
12.9697	1.24999	3.58023	43.7793
13.0707	1.24999	3.58023	43.4769
13.1717	1.24999	3.58023	43.1721
13.2727	1.24999	3.58023	42.8648
13.3737	1.24999	3.58023	42.5549
13.4747	1.24999	3.58023	42.2425
13.5758	1.24999	3.58023	41.927
13.6768	1.24999	3.58023	41.6084
13.7778	1.24999	3.58023	41.286
13.8788	1.24999	3.58023	40.9594
13.9798	1.24999	3.58023	40.6279
14.0808	1.24999	3.58023	40.2905
14.1818	1.24999	3.58023	39.9463
14.2828	1.24999	3.58023	39.594
14.3838	1.24999	3.58023	39.2321
14.4848	1.24999	3.58023	38.8585
14.5859	1.24999	3.58023	38.4712
14.6869	1.24999	3.58023	38.0672
14.7879	1.24999	3.58023	37.643
14.8889	1.24999	3.58023	37.1944
14.9899	1.24999	3.58023	36.7162
15.0909	1.24999	3.58023	36.2017
15.1919	1.24999	3.58023	35.6429
15.2929	1.24999	3.58023	35.0296
15.3939	1.24999	3.58023	34.3492
15.4949	1.24999	3.58023	33.5857
15.596	1.24999	3.58023	32.7191
15.697	1.24999	3.58023	31.7234
15.798	1.24999	3.58023	30.5648
15.899	1.24999	3.58023	29.1863
16	1.24999	3.58023	-inf
6	1.2704	3.64494	57.9977
6.10101	1.2704	3.64494	57.9092
6.20202	1.2704	3.64494	57.8134
6.30303	1.2704	3.64494	57.708
6.40404	1.2704	3.64494	57.5913
6.50505	1.2704	3.64494	57.463
6.60606	1.2704	3.64494	57.3235
6.70707	1.2704	3.64494	57.1736
6.80808	1.2704	3.64494	57.0145
6.90909	1.2704	3.64494	56.8477
7.0101	1.2704	3.64494	56.6742
7.11111	1.2704	3.64494	56.4952
7.21212	1.2704	3.64494	56.3117
7.31313	1.2704	3.64494	56.1245
7.41414	1.2704	3.64494	55.9343
7.51515	1.2704	3.64494	55.7418
7.61616	1.2704	3.64494	55.5473
7.71717	1.2704	3.64494	55.3513
7.81818	1.2704	3.64494	55.154
7.91919	1.2704	3.64494	54.9558
8.0202	1.2704	3.64494	54.7568
8.12121	1.2704	3.64494	54.5572
8.22222	1.2704	3.64494	54.357
8.32323	1.2704	3.64494	54.1565
8.42424	1.2704	3.64494	53.9557
8.52525	1.2704	3.64494	53.7546
8.62626	1.2704	3.64494	53.5533
8.72727	1.2704	3.64494	53.3519
8.82828	1.2704	3.64494	53.1503
8.92929	1.2704	3.64494	52.9486
9.0303	1.2704	3.64494	52.7468
9.13131	1.2704	3.64494	52.545
9.23232	1.2704	3.64494	52.3431
9.33333	1.2704	3.64494	52.1411
9.43434	1.2704	3.64494	51.939
9.53535	1.2704	3.64494	51.7369
9.63636	1.2704	3.64494	51.5347
9.73737	1.2704	3.64494	51.3324
9.83838	1.2704	3.64494	51.1299
9.93939	1.2704	3.64494	50.9274
10.0404	1.2704	3.64494	50.7246
10.1414	1.2704	3.64494	50.5215
10.2424	1.2704	3.64494	50.3182
10.3434	1.2704	3.64494	50.1144
10.4444	1.2704	3.64494	49.91
10.5455	1.2704	3.64494	49.705
10.6465	1.2704	3.64494	49.4991
10.7475	1.2704	3.64494	49.292
10.8485	1.2704	3.64494	49.0834
10.9495	1.2704	3.64494	48.873
11.0505	1.2704	3.64494	48.6604
11.1515	1.2704	3.64494	48.4451
11.2525	1.2704	3.64494	48.2265
11.3535	1.2704	3.64494	48.004
11.4545	1.2704	3.64494	47.7771
11.5556	1.2704	3.64494	47.5451
11.6566	1.2704	3.64494	47.3077
11.7576	1.2704	3.64494	47.0643
11.8586	1.2704	3.64494	46.8147
11.9596	1.2704	3.64494	46.559
12.0606	1.2704	3.64494	46.2971
12.1616	1.2704	3.64494	46.0292
12.2626	1.2704	3.64494	45.7558
12.3636	1.2704	3.64494	45.4773
12.4646	1.2704	3.64494	45.1941
12.5657	1.2704	3.64494	44.9068
12.6667	1.2704	3.64494	44.6158
12.7677	1.2704	3.64494	44.3214
12.8687	1.2704	3.64494	44.0241
12.9697	1.2704	3.64494	43.7241
13.0707	1.2704	3.64494	43.4215
13.1717	1.2704	3.64494	43.1166
13.2727	1.2704	3.64494	42.8091
13.3737	1.2704	3.64494	42.4992
13.4747	1.2704	3.64494	42.1866
13.5758	1.2704	3.64494	41.8712
13.6768	1.2704	3.64494	41.5525
13.7778	1.2704	3.64494	41.2301
13.8788	1.2704	3.64494	40.9034
13.9798	1.2704	3.64494	40.5719
14.0808	1.2704	3.64494	40.2345
14.1818	1.2704	3.64494	39.8903
14.2828	1.2704	3.64494	39.538
14.3838	1.2704	3.64494	39.176
14.4848	1.2704	3.64494	38.8025
14.5859	1.2704	3.64494	38.4151
14.6869	1.2704	3.64494	38.0111
14.7879	1.2704	3.64494	37.5869
14.8889	1.2704	3.64494	37.1383
14.9899	1.2704	3.64494	36.6601
15.0909	1.2704	3.64494	36.1456
15.1919	1.2704	3.64494	35.5868
15.2929	1.2704	3.64494	34.9735
15.3939	1.2704	3.64494	34.2931
15.4949	1.2704	3.64494	33.5296
15.596	1.2704	3.64494	32.6629
15.697	1.2704	3.64494	31.6673
15.798	1.2704	3.64494	30.5087
15.899	1.2704	3.64494	29.1302
16	1.2704	3.64494	-inf
6	1.29081	3.72541	57.9695
6.10101	1.29081	3.72541	57.8799
6.20202	1.29081	3.72541	57.7831
6.30303	1.29081	3.72541	57.6768
6.40404	1.29081	3.72541	57.5595
6.50505	1.29081	3.72541	57.4306
6.60606	1.29081	3.72541	57.2906
6.70707	1.29081	3.72541	57.1403
6.80808	1.29081	3.72541	56.981
6.90909	1.29081	3.72541	56.8139
7.0101	1.29081	3.72541	56.6403
7.11111	1.29081	3.72541	56.4611
7.21212	1.29081	3.72541	56.2775
7.31313	1.29081	3.72541	56.0903
7.41414	1.29081	3.72541	55.9001
7.51515	1.29081	3.72541	55.7075
7.61616	1.29081	3.72541	55.5129
7.71717	1.29081	3.72541	55.3169
7.81818	1.29081	3.72541	55.1196
7.91919	1.29081	3.72541	54.9214
8.0202	1.29081	3.72541	54.7224
8.12121	1.29081	3.72541	54.5227
8.22222	1.29081	3.72541	54.3226
8.32323	1.29081	3.72541	54.122
8.42424	1.29081	3.72541	53.9212
8.52525	1.29081	3.72541	53.7201
8.62626	1.29081	3.72541	53.5188
8.72727	1.29081	3.72541	53.3174
8.82828	1.29081	3.72541	53.1158
8.92929	1.29081	3.72541	52.9141
9.0303	1.29081	3.72541	52.7123
9.13131	1.29081	3.72541	52.5105
9.23232	1.29081	3.72541	52.3085
9.33333	1.29081	3.72541	52.1065
9.43434	1.29081	3.72541	51.9045
9.53535	1.29081	3.72541	51.7023
9.63636	1.29081	3.72541	51.5001
9.73737	1.29081	3.72541	51.2977
9.83838	1.29081	3.72541	51.0953
9.93939	1.29081	3.72541	50.8926
10.0404	1.29081	3.72541	50.6898
10.1414	1.29081	3.72541	50.4867
10.2424	1.29081	3.72541	50.2832
10.3434	1.29081	3.72541	50.0793
10.4444	1.29081	3.72541	49.8748
10.5455	1.29081	3.72541	49.6696
10.6465	1.29081	3.72541	49.4634
10.7475	1.29081	3.72541	49.256
10.8485	1.29081	3.72541	49.0471
10.9495	1.29081	3.72541	48.8364
11.0505	1.29081	3.72541	48.6233
11.1515	1.29081	3.72541	48.4074
11.2525	1.29081	3.72541	48.1882
11.3535	1.29081	3.72541	47.965
11.4545	1.29081	3.72541	47.7373
11.5556	1.29081	3.72541	47.5045
11.6566	1.29081	3.72541	47.2661
11.7576	1.29081	3.72541	47.0218
11.8586	1.29081	3.72541	46.7713
11.9596	1.29081	3.72541	46.5147
12.0606	1.29081	3.72541	46.2519
12.1616	1.29081	3.72541	45.9832
12.2626	1.29081	3.72541	45.7091
12.3636	1.29081	3.72541	45.4299
12.4646	1.29081	3.72541	45.1462
12.5657	1.29081	3.72541	44.8584
12.6667	1.29081	3.72541	44.5669
12.7677	1.29081	3.72541	44.2722
12.8687	1.29081	3.72541	43.9746
12.9697	1.29081	3.72541	43.6744
13.0707	1.29081	3.72541	43.3716
13.1717	1.29081	3.72541	43.0665
13.2727	1.29081	3.72541	42.759
13.3737	1.29081	3.72541	42.4489
13.4747	1.29081	3.72541	42.1363
13.5758	1.29081	3.72541	41.8207
13.6768	1.29081	3.72541	41.502
13.7778	1.29081	3.72541	41.1796
13.8788	1.29081	3.72541	40.8529
13.9798	1.29081	3.72541	40.5213
14.0808	1.29081	3.72541	40.1839
14.1818	1.29081	3.72541	39.8397
14.2828	1.29081	3.72541	39.4873
14.3838	1.29081	3.72541	39.1253
14.4848	1.29081	3.72541	38.7518
14.5859	1.29081	3.72541	38.3644
14.6869	1.29081	3.72541	37.9604
14.7879	1.29081	3.72541	37.5362
14.8889	1.29081	3.72541	37.0877
14.9899	1.29081	3.72541	36.6094
15.0909	1.29081	3.72541	36.0949
15.1919	1.29081	3.72541	35.5361
15.2929	1.29081	3.72541	34.9228
15.3939	1.29081	3.72541	34.2424
15.4949	1.29081	3.72541	33.4789
15.596	1.29081	3.72541	32.6123
15.697	1.29081	3.72541	31.6166
15.798	1.29081	3.72541	30.458
15.899	1.29081	3.72541	29.0795
16	1.29081	3.72541	-inf
6	1.31121	3.79375	57.9363
6.10101	1.31121	3.79375	57.8456
6.20202	1.31121	3.79375	57.7478
6.30303	1.31121	3.79375	57.6406
6.40404	1.31121	3.79375	57.5225
6.50505	1.31121	3.79375	57.3931
6.60606	1.31121	3.79375	57.2527
6.70707	1.31121	3.79375	57.1021
6.80808	1.31121	3.79375	56.9425
6.90909	1.31121	3.79375	56.7752
7.0101	1.31121	3.79375	56.6013
7.11111	1.31121	3.79375	56.4221
7.21212	1.31121	3.79375	56.2384
7.31313	1.31121	3.79375	56.051
7.41414	1.31121	3.79375	55.8608
7.51515	1.31121	3.79375	55.6681
7.61616	1.31121	3.79375	55.4736
7.71717	1.31121	3.79375	55.2775
7.81818	1.31121	3.79375	55.0802
7.91919	1.31121	3.79375	54.8819
8.0202	1.31121	3.79375	54.6829
8.12121	1.31121	3.79375	54.4832
8.22222	1.31121	3.79375	54.2831
8.32323	1.31121	3.79375	54.0825
8.42424	1.31121	3.79375	53.8817
8.52525	1.31121	3.79375	53.6806
8.62626	1.31121	3.79375	53.4793
8.72727	1.31121	3.79375	53.2778
8.82828	1.31121	3.79375	53.0762
8.92929	1.31121	3.79375	52.8745
9.0303	1.31121	3.79375	52.6728
9.13131	1.31121	3.79375	52.4709
9.23232	1.31121	3.79375	52.2689
9.33333	1.31121	3.79375	52.0669
9.43434	1.31121	3.79375	51.8649
9.53535	1.31121	3.79375	51.6627
9.63636	1.31121	3.79375	51.4604
9.73737	1.31121	3.79375	51.2581
9.83838	1.31121	3.79375	51.0555
9.93939	1.31121	3.79375	50.8529
10.0404	1.31121	3.79375	50.6499
10.1414	1.31121	3.79375	50.4468
10.2424	1.31121	3.79375	50.2432
10.3434	1.31121	3.79375	50.0392
10.4444	1.31121	3.79375	49.8345
10.5455	1.31121	3.79375	49.6291
10.6465	1.31121	3.79375	49.4227
10.7475	1.31121	3.79375	49.215
10.8485	1.31121	3.79375	49.0058
10.9495	1.31121	3.79375	48.7947
11.0505	1.31121	3.79375	48.5811
11.1515	1.31121	3.79375	48.3647
11.2525	1.31121	3.79375	48.1448
11.3535	1.31121	3.79375	47.9209
11.4545	1.31121	3.79375	47.6924
11.5556	1.31121	3.79375	47.4588
11.6566	1.31121	3.79375	47.2196
11.7576	1.31121	3.79375	46.9744
11.8586	1.31121	3.79375	46.723
11.9596	1.31121	3.79375	46.4655
12.0606	1.31121	3.79375	46.2019
12.1616	1.31121	3.79375	45.9325
12.2626	1.31121	3.79375	45.6576
12.3636	1.31121	3.79375	45.3778
12.4646	1.31121	3.79375	45.0936
12.5657	1.31121	3.79375	44.8053
12.6667	1.31121	3.79375	44.5135
12.7677	1.31121	3.79375	44.2185
12.8687	1.31121	3.79375	43.9206
12.9697	1.31121	3.79375	43.6202
13.0707	1.31121	3.79375	43.3172
13.1717	1.31121	3.79375	43.0119
13.2727	1.31121	3.79375	42.7043
13.3737	1.31121	3.79375	42.3942
13.4747	1.31121	3.79375	42.0814
13.5758	1.31121	3.79375	41.7658
13.6768	1.31121	3.79375	41.447
13.7778	1.31121	3.79375	41.1246
13.8788	1.31121	3.79375	40.7979
13.9798	1.31121	3.79375	40.4662
14.0808	1.31121	3.79375	40.1288
14.1818	1.31121	3.79375	39.7846
14.2828	1.31121	3.79375	39.4322
14.3838	1.31121	3.79375	39.0702
14.4848	1.31121	3.79375	38.6967
14.5859	1.31121	3.79375	38.3093
14.6869	1.31121	3.79375	37.9053
14.7879	1.31121	3.79375	37.4811
14.8889	1.31121	3.79375	37.0325
14.9899	1.31121	3.79375	36.5543
15.0909	1.31121	3.79375	36.0398
15.1919	1.31121	3.79375	35.481
15.2929	1.31121	3.79375	34.8677
15.3939	1.31121	3.79375	34.1873
15.4949	1.31121	3.79375	33.4238
15.596	1.31121	3.79375	32.5571
15.697	1.31121	3.79375	31.5615
15.798	1.31121	3.79375	30.4029
15.899	1.31121	3.79375	29.0244
16	1.31121	3.79375	-inf
6	1.33162	3.878	57.9078
6.10101	1.33162	3.878	57.816
6.20202	1.33162	3.878	57.7174
6.30303	1.33162	3.878	57.6095
6.40404	1.33162	3.878	57.4908
6.50505	1.33162	3.878	57.3609
6.60606	1.33162	3.878	57.2201
6.70707	1.33162	3.878	57.0692
6.80808	1.33162	3.878	56.9094
6.90909	1.33162	3.878	56.7419
7.0101	1.33162	3.878	56.5679
7.11111	1.33162	3.878	56.3885
7.21212	1.33162	3.878	56.2047
7.31313	1.33162	3.878	56.0173
7.41414	1.33162	3.878	55.827
7.51515	1.33162	3.878	55.6343
7.61616	1.33162	3.878	55.4397
7.71717	1.33162	3.878	55.2436
7.81818	1.33162	3.878	55.0463
7.91919	1.33162	3.878	54.848
8.0202	1.33162	3.878	54.6489
8.12121	1.33162	3.878	54.4493
8.22222	1.33162	3.878	54.2491
8.32323	1.33162	3.878	54.0486
8.42424	1.33162	3.878	53.8477
8.52525	1.33162	3.878	53.6466
8.62626	1.33162	3.878	53.4453
8.72727	1.33162	3.878	53.2438
8.82828	1.33162	3.878	53.0422
8.92929	1.33162	3.878	52.8405
9.0303	1.33162	3.878	52.6387
9.13131	1.33162	3.878	52.4369
9.23232	1.33162	3.878	52.2349
9.33333	1.33162	3.878	52.0329
9.43434	1.33162	3.878	51.8308
9.53535	1.33162	3.878	51.6286
9.63636	1.33162	3.878	51.4263
9.73737	1.33162	3.878	51.2239
9.83838	1.33162	3.878	51.0214
9.93939	1.33162	3.878	50.8186
10.0404	1.33162	3.878	50.6157
10.1414	1.33162	3.878	50.4124
10.2424	1.33162	3.878	50.2087
10.3434	1.33162	3.878	50.0046
10.4444	1.33162	3.878	49.7998
10.5455	1.33162	3.878	49.5942
10.6465	1.33162	3.878	49.3875
10.7475	1.33162	3.878	49.1796
10.8485	1.33162	3.878	48.97
10.9495	1.33162	3.878	48.7585
11.0505	1.33162	3.878	48.5444
11.1515	1.33162	3.878	48.3274
11.2525	1.33162	3.878	48.1069
11.3535	1.33162	3.878	47.8823
11.4545	1.33162	3.878	47.6531
11.5556	1.33162	3.878	47.4186
11.6566	1.33162	3.878	47.1785
11.7576	1.33162	3.878	46.9324
11.8586	1.33162	3.878	46.6801
11.9596	1.33162	3.878	46.4217
12.0606	1.33162	3.878	46.1572
12.1616	1.33162	3.878	45.887
12.2626	1.33162	3.878	45.6115
12.3636	1.33162	3.878	45.3311
12.4646	1.33162	3.878	45.0463
12.5657	1.33162	3.878	44.7575
12.6667	1.33162	3.878	44.4653
12.7677	1.33162	3.878	44.17
12.8687	1.33162	3.878	43.8719
12.9697	1.33162	3.878	43.5712
13.0707	1.33162	3.878	43.2681
13.1717	1.33162	3.878	42.9626
13.2727	1.33162	3.878	42.6549
13.3737	1.33162	3.878	42.3447
13.4747	1.33162	3.878	42.0319
13.5758	1.33162	3.878	41.7162
13.6768	1.33162	3.878	41.3973
13.7778	1.33162	3.878	41.0748
13.8788	1.33162	3.878	40.7481
13.9798	1.33162	3.878	40.4165
14.0808	1.33162	3.878	40.079
14.1818	1.33162	3.878	39.7348
14.2828	1.33162	3.878	39.3824
14.3838	1.33162	3.878	39.0204
14.4848	1.33162	3.878	38.6469
14.5859	1.33162	3.878	38.2595
14.6869	1.33162	3.878	37.8554
14.7879	1.33162	3.878	37.4312
14.8889	1.33162	3.878	36.9827
14.9899	1.33162	3.878	36.5044
15.0909	1.33162	3.878	35.99
15.1919	1.33162	3.878	35.4311
15.2929	1.33162	3.878	34.8178
15.3939	1.33162	3.878	34.1374
15.4949	1.33162	3.878	33.3739
15.596	1.33162	3.878	32.5073
15.697	1.33162	3.878	31.5116
15.798	1.33162	3.878	30.353
15.899	1.33162	3.878	28.9745
16	1.33162	3.878	-inf
6	1.35203	3.96434	57.879
6.10101	1.35203	3.96434	57.7864
6.20202	1.35203	3.96434	57.6869
6.30303	1.35203	3.96434	57.5784
6.40404	1.35203	3.96434	57.4592
6.50505	1.35203	3.96434	57.3288
6.60606	1.35203	3.96434	57.1876
6.70707	1.35203	3.96434	57.0364
6.80808	1.35203	3.96434	56.8764
6.90909	1.35203	3.96434	56.7087
7.0101	1.35203	3.96434	56.5346
7.11111	1.35203	3.96434	56.3552
7.21212	1.35203	3.96434	56.1713
7.31313	1.35203	3.96434	55.9838
7.41414	1.35203	3.96434	55.7934
7.51515	1.35203	3.96434	55.6007
7.61616	1.35203	3.96434	55.4061
7.71717	1.35203	3.96434	55.2099
7.81818	1.35203	3.96434	55.0126
7.91919	1.35203	3.96434	54.8143
8.0202	1.35203	3.96434	54.6152
8.12121	1.35203	3.96434	54.4155
8.22222	1.35203	3.96434	54.2154
8.32323	1.35203	3.96434	54.0148
8.42424	1.35203	3.96434	53.814
8.52525	1.35203	3.96434	53.6129
8.62626	1.35203	3.96434	53.4115
8.72727	1.35203	3.96434	53.2101
8.82828	1.35203	3.96434	53.0085
8.92929	1.35203	3.96434	52.8068
9.0303	1.35203	3.96434	52.605
9.13131	1.35203	3.96434	52.4031
9.23232	1.35203	3.96434	52.2011
9.33333	1.35203	3.96434	51.9991
9.43434	1.35203	3.96434	51.797
9.53535	1.35203	3.96434	51.5948
9.63636	1.35203	3.96434	51.3924
9.73737	1.35203	3.96434	51.19
9.83838	1.35203	3.96434	50.9874
9.93939	1.35203	3.96434	50.7846
10.0404	1.35203	3.96434	50.5816
10.1414	1.35203	3.96434	50.3782
10.2424	1.35203	3.96434	50.1745
10.3434	1.35203	3.96434	49.9702
10.4444	1.35203	3.96434	49.7652
10.5455	1.35203	3.96434	49.5594
10.6465	1.35203	3.96434	49.3526
10.7475	1.35203	3.96434	49.1443
10.8485	1.35203	3.96434	48.9344
10.9495	1.35203	3.96434	48.7224
11.0505	1.35203	3.96434	48.5079
11.1515	1.35203	3.96434	48.2904
11.2525	1.35203	3.96434	48.0692
11.3535	1.35203	3.96434	47.8439
11.4545	1.35203	3.96434	47.6139
11.5556	1.35203	3.96434	47.3786
11.6566	1.35203	3.96434	47.1375
11.7576	1.35203	3.96434	46.8905
11.8586	1.35203	3.96434	46.6374
11.9596	1.35203	3.96434	46.3781
12.0606	1.35203	3.96434	46.1128
12.1616	1.35203	3.96434	45.8418
12.2626	1.35203	3.96434	45.5656
12.3636	1.35203	3.96434	45.2846
12.4646	1.35203	3.96434	44.9993
12.5657	1.35203	3.96434	44.7101
12.6667	1.35203	3.96434	44.4175
12.7677	1.35203	3.96434	44.1218
12.8687	1.35203	3.96434	43.8234
12.9697	1.35203	3.96434	43.5225
13.0707	1.35203	3.96434	43.2192
13.1717	1.35203	3.96434	42.9137
13.2727	1.35203	3.96434	42.6058
13.3737	1.35203	3.96434	42.2955
13.4747	1.35203	3.96434	41.9826
13.5758	1.35203	3.96434	41.6669
13.6768	1.35203	3.96434	41.348
13.7778	1.35203	3.96434	41.0254
13.8788	1.35203	3.96434	40.6987
13.9798	1.35203	3.96434	40.367
14.0808	1.35203	3.96434	40.0296
14.1818	1.35203	3.96434	39.6853
14.2828	1.35203	3.96434	39.3329
14.3838	1.35203	3.96434	38.9709
14.4848	1.35203	3.96434	38.5973
14.5859	1.35203	3.96434	38.21
14.6869	1.35203	3.96434	37.8059
14.7879	1.35203	3.96434	37.3817
14.8889	1.35203	3.96434	36.9331
14.9899	1.35203	3.96434	36.4549
15.0909	1.35203	3.96434	35.9404
15.1919	1.35203	3.96434	35.3816
15.2929	1.35203	3.96434	34.7683
15.3939	1.35203	3.96434	34.0879
15.4949	1.35203	3.96434	33.3244
15.596	1.35203	3.96434	32.4577
15.697	1.35203	3.96434	31.4621
15.798	1.35203	3.96434	30.3035
15.899	1.35203	3.96434	28.925
16	1.35203	3.96434	-inf
6	1.37244	4.03917	57.8455
6.10101	1.37244	4.03917	57.7519
6.20202	1.37244	4.03917	57.6517
6.30303	1.37244	4.03917	57.5424
6.40404	1.37244	4.03917	57.4226
6.50505	1.37244	4.03917	57.2919
6.60606	1.37244	4.03917	57.1503
6.70707	1.37244	4.03917	56.9988
6.80808	1.37244	4.03917	56.8386
6.90909	1.37244	4.03917	56.6707
7.0101	1.37244	4.03917	56.4965
7.11111	1.37244	4.03917	56.3169
7.21212	1.37244	4.03917	56.1329
7.31313	1.37244	4.03917	55.9454
7.41414	1.37244	4.03917	55.755
7.51515	1.37244	4.03917	55.5622
7.61616	1.37244	4.03917	55.3675
7.71717	1.37244	4.03917	55.1714
7.81818	1.37244	4.03917	54.974
7.91919	1.37244	4.03917	54.7757
8.0202	1.37244	4.03917	54.5766
8.12121	1.37244	4.03917	54.3769
8.22222	1.37244	4.03917	54.1768
8.32323	1.37244	4.03917	53.9762
8.42424	1.37244	4.03917	53.7753
8.52525	1.37244	4.03917	53.5742
8.62626	1.37244	4.03917	53.3729
8.72727	1.37244	4.03917	53.1714
8.82828	1.37244	4.03917	52.9698
8.92929	1.37244	4.03917	52.7681
9.0303	1.37244	4.03917	52.5663
9.13131	1.37244	4.03917	52.3644
9.23232	1.37244	4.03917	52.1624
9.33333	1.37244	4.03917	51.9604
9.43434	1.37244	4.03917	51.7582
9.53535	1.37244	4.03917	51.556
9.63636	1.37244	4.03917	51.3537
9.73737	1.37244	4.03917	51.1512
9.83838	1.37244	4.03917	50.9486
9.93939	1.37244	4.03917	50.7457
10.0404	1.37244	4.03917	50.5426
10.1414	1.37244	4.03917	50.3392
10.2424	1.37244	4.03917	50.1353
10.3434	1.37244	4.03917	49.9309
10.4444	1.37244	4.03917	49.7258
10.5455	1.37244	4.03917	49.5198
10.6465	1.37244	4.03917	49.3127
10.7475	1.37244	4.03917	49.1042
10.8485	1.37244	4.03917	48.8939
10.9495	1.37244	4.03917	48.6815
11.0505	1.37244	4.03917	48.4665
11.1515	1.37244	4.03917	48.2484
11.2525	1.37244	4.03917	48.0267
11.3535	1.37244	4.03917	47.8006
11.4545	1.37244	4.03917	47.5698
11.5556	1.37244	4.03917	47.3337
11.6566	1.37244	4.03917	47.0918
11.7576	1.37244	4.03917	46.8439
11.8586	1.37244	4.03917	46.5899
11.9596	1.37244	4.03917	46.3298
12.0606	1.37244	4.03917	46.0637
12.1616	1.37244	4.03917	45.792
12.2626	1.37244	4.03917	45.5152
12.3636	1.37244	4.03917	45.2336
12.4646	1.37244	4.03917	44.9477
12.5657	1.37244	4.03917	44.6581
12.6667	1.37244	4.03917	44.3652
12.7677	1.37244	4.03917	44.0692
12.8687	1.37244	4.03917	43.7706
12.9697	1.37244	4.03917	43.4695
13.0707	1.37244	4.03917	43.166
13.1717	1.37244	4.03917	42.8603
13.2727	1.37244	4.03917	42.5523
13.3737	1.37244	4.03917	42.2419
13.4747	1.37244	4.03917	41.929
13.5758	1.37244	4.03917	41.6132
13.6768	1.37244	4.03917	41.2943
13.7778	1.37244	4.03917	40.9717
13.8788	1.37244	4.03917	40.6449
13.9798	1.37244	4.03917	40.3132
14.0808	1.37244	4.03917	39.9757
14.1818	1.37244	4.03917	39.6315
14.2828	1.37244	4.03917	39.2791
14.3838	1.37244	4.03917	38.9171
14.4848	1.37244	4.03917	38.5435
14.5859	1.37244	4.03917	38.1561
14.6869	1.37244	4.03917	37.752
14.7879	1.37244	4.03917	37.3279
14.8889	1.37244	4.03917	36.8793
14.9899	1.37244	4.03917	36.401
15.0909	1.37244	4.03917	35.8865
15.1919	1.37244	4.03917	35.3277
15.2929	1.37244	4.03917	34.7144
15.3939	1.37244	4.03917	34.034
15.4949	1.37244	4.03917	33.2705
15.596	1.37244	4.03917	32.4039
15.697	1.37244	4.03917	31.4082
15.798	1.37244	4.03917	30.2496
15.899	1.37244	4.03917	28.8711
16	1.37244	4.03917	-inf
6	1.39285	4.1165	57.8119
6.10101	1.39285	4.1165	57.7175
6.20202	1.39285	4.1165	57.6165
6.30303	1.39285	4.1165	57.5066
6.40404	1.39285	4.1165	57.3863
6.50505	1.39285	4.1165	57.2551
6.60606	1.39285	4.1165	57.1132
6.70707	1.39285	4.1165	56.9615
6.80808	1.39285	4.1165	56.801
6.90909	1.39285	4.1165	56.633
7.0101	1.39285	4.1165	56.4586
7.11111	1.39285	4.1165	56.279
7.21212	1.39285	4.1165	56.0949
7.31313	1.39285	4.1165	55.9073
7.41414	1.39285	4.1165	55.7168
7.51515	1.39285	4.1165	55.524
7.61616	1.39285	4.1165	55.3293
7.71717	1.39285	4.1165	55.1332
7.81818	1.39285	4.1165	54.9358
7.91919	1.39285	4.1165	54.7374
8.0202	1.39285	4.1165	54.5384
8.12121	1.39285	4.1165	54.3387
8.22222	1.39285	4.1165	54.1385
8.32323	1.39285	4.1165	53.9379
8.42424	1.39285	4.1165	53.737
8.52525	1.39285	4.1165	53.5359
8.62626	1.39285	4.1165	53.3346
8.72727	1.39285	4.1165	53.1331
8.82828	1.39285	4.1165	52.9315
8.92929	1.39285	4.1165	52.7298
9.0303	1.39285	4.1165	52.528
9.13131	1.39285	4.1165	52.3261
9.23232	1.39285	4.1165	52.1241
9.33333	1.39285	4.1165	51.922
9.43434	1.39285	4.1165	51.7198
9.53535	1.39285	4.1165	51.5176
9.63636	1.39285	4.1165	51.3152
9.73737	1.39285	4.1165	51.1127
9.83838	1.39285	4.1165	50.91
9.93939	1.39285	4.1165	50.7071
10.0404	1.39285	4.1165	50.504
10.1414	1.39285	4.1165	50.3004
10.2424	1.39285	4.1165	50.0965
10.3434	1.39285	4.1165	49.8919
10.4444	1.39285	4.1165	49.6866
10.5455	1.39285	4.1165	49.4805
10.6465	1.39285	4.1165	49.2731
10.7475	1.39285	4.1165	49.0643
10.8485	1.39285	4.1165	48.8537
10.9495	1.39285	4.1165	48.6409
11.0505	1.39285	4.1165	48.4254
11.1515	1.39285	4.1165	48.2068
11.2525	1.39285	4.1165	47.9844
11.3535	1.39285	4.1165	47.7576
11.4545	1.39285	4.1165	47.526
11.5556	1.39285	4.1165	47.2891
11.6566	1.39285	4.1165	47.0464
11.7576	1.39285	4.1165	46.7976
11.8586	1.39285	4.1165	46.5427
11.9596	1.39285	4.1165	46.2818
12.0606	1.39285	4.1165	46.0149
12.1616	1.39285	4.1165	45.7425
12.2626	1.39285	4.1165	45.465
12.3636	1.39285	4.1165	45.1829
12.4646	1.39285	4.1165	44.8965
12.5657	1.39285	4.1165	44.6065
12.6667	1.39285	4.1165	44.3132
12.7677	1.39285	4.1165	44.017
12.8687	1.39285	4.1165	43.7181
12.9697	1.39285	4.1165	43.4168
13.0707	1.39285	4.1165	43.1132
13.1717	1.39285	4.1165	42.8073
13.2727	1.39285	4.1165	42.4992
13.3737	1.39285	4.1165	42.1888
13.4747	1.39285	4.1165	41.8758
13.5758	1.39285	4.1165	41.5599
13.6768	1.39285	4.1165	41.2409
13.7778	1.39285	4.1165	40.9183
13.8788	1.39285	4.1165	40.5915
13.9798	1.39285	4.1165	40.2598
14.0808	1.39285	4.1165	39.9223
14.1818	1.39285	4.1165	39.578
14.2828	1.39285	4.1165	39.2256
14.3838	1.39285	4.1165	38.8636
14.4848	1.39285	4.1165	38.49
14.5859	1.39285	4.1165	38.1026
14.6869	1.39285	4.1165	37.6986
14.7879	1.39285	4.1165	37.2744
14.8889	1.39285	4.1165	36.8258
14.9899	1.39285	4.1165	36.3475
15.0909	1.39285	4.1165	35.8331
15.1919	1.39285	4.1165	35.2742
15.2929	1.39285	4.1165	34.6609
15.3939	1.39285	4.1165	33.9805
15.4949	1.39285	4.1165	33.217
15.596	1.39285	4.1165	32.3504
15.697	1.39285	4.1165	31.3547
15.798	1.39285	4.1165	30.1961
15.899	1.39285	4.1165	28.8176
16	1.39285	4.1165	-inf
6	1.41326	4.19643	57.7783
6.10101	1.41326	4.19643	57.6831
6.20202	1.41326	4.19643	57.5814
6.30303	1.41326	4.19643	57.4709
6.40404	1.41326	4.19643	57.3501
6.50505	1.41326	4.19643	57.2185
6.60606	1.41326	4.19643	57.0763
6.70707	1.41326	4.19643	56.9244
6.80808	1.41326	4.19643	56.7637
6.90909	1.41326	4.19643	56.5956
7.0101	1.41326	4.19643	56.4211
7.11111	1.41326	4.19643	56.2413
7.21212	1.41326	4.19643	56.0572
7.31313	1.41326	4.19643	55.8695
7.41414	1.41326	4.19643	55.679
7.51515	1.41326	4.19643	55.4861
7.61616	1.41326	4.19643	55.2914
7.71717	1.41326	4.19643	55.0952
7.81818	1.41326	4.19643	54.8978
7.91919	1.41326	4.19643	54.6995
8.0202	1.41326	4.19643	54.5004
8.12121	1.41326	4.19643	54.3007
8.22222	1.41326	4.19643	54.1005
8.32323	1.41326	4.19643	53.8999
8.42424	1.41326	4.19643	53.699
8.52525	1.41326	4.19643	53.4979
8.62626	1.41326	4.19643	53.2966
8.72727	1.41326	4.19643	53.0951
8.82828	1.41326	4.19643	52.8935
8.92929	1.41326	4.19643	52.6917
9.0303	1.41326	4.19643	52.4899
9.13131	1.41326	4.19643	52.288
9.23232	1.41326	4.19643	52.086
9.33333	1.41326	4.19643	51.8839
9.43434	1.41326	4.19643	51.6817
9.53535	1.41326	4.19643	51.4795
9.63636	1.41326	4.19643	51.2771
9.73737	1.41326	4.19643	51.0745
9.83838	1.41326	4.19643	50.8718
9.93939	1.41326	4.19643	50.6688
10.0404	1.41326	4.19643	50.4656
10.1414	1.41326	4.19643	50.262
10.2424	1.41326	4.19643	50.0579
10.3434	1.41326	4.19643	49.8532
10.4444	1.41326	4.19643	49.6478
10.5455	1.41326	4.19643	49.4414
10.6465	1.41326	4.19643	49.2338
10.7475	1.41326	4.19643	49.0247
10.8485	1.41326	4.19643	48.8137
10.9495	1.41326	4.19643	48.6005
11.0505	1.41326	4.19643	48.3846
11.1515	1.41326	4.19643	48.1654
11.2525	1.41326	4.19643	47.9423
11.3535	1.41326	4.19643	47.7149
11.4545	1.41326	4.19643	47.4825
11.5556	1.41326	4.19643	47.2447
11.6566	1.41326	4.19643	47.0012
11.7576	1.41326	4.19643	46.7515
11.8586	1.41326	4.19643	46.4958
11.9596	1.41326	4.19643	46.234
12.0606	1.41326	4.19643	45.9664
12.1616	1.41326	4.19643	45.6933
12.2626	1.41326	4.19643	45.4152
12.3636	1.41326	4.19643	45.1324
12.4646	1.41326	4.19643	44.8456
12.5657	1.41326	4.19643	44.5552
12.6667	1.41326	4.19643	44.2616
12.7677	1.41326	4.19643	43.965
12.8687	1.41326	4.19643	43.6659
12.9697	1.41326	4.19643	43.3644
13.0707	1.41326	4.19643	43.0607
13.1717	1.41326	4.19643	42.7547
13.2727	1.41326	4.19643	42.4465
13.3737	1.41326	4.19643	42.136
13.4747	1.41326	4.19643	41.8229
13.5758	1.41326	4.19643	41.507
13.6768	1.41326	4.19643	41.188
13.7778	1.41326	4.19643	40.8653
13.8788	1.41326	4.19643	40.5385
13.9798	1.41326	4.19643	40.2068
14.0808	1.41326	4.19643	39.8693
14.1818	1.41326	4.19643	39.5249
14.2828	1.41326	4.19643	39.1725
14.3838	1.41326	4.19643	38.8105
14.4848	1.41326	4.19643	38.4369
14.5859	1.41326	4.19643	38.0495
14.6869	1.41326	4.19643	37.6455
14.7879	1.41326	4.19643	37.2213
14.8889	1.41326	4.19643	36.7727
14.9899	1.41326	4.19643	36.2944
15.0909	1.41326	4.19643	35.7799
15.1919	1.41326	4.19643	35.2211
15.2929	1.41326	4.19643	34.6078
15.3939	1.41326	4.19643	33.9274
15.4949	1.41326	4.19643	33.1639
15.596	1.41326	4.19643	32.2972
15.697	1.41326	4.19643	31.3016
15.798	1.41326	4.19643	30.143
15.899	1.41326	4.19643	28.7645
16	1.41326	4.19643	-inf
6	1.43366	4.27911	57.7447
6.10101	1.43366	4.27911	57.6488
6.20202	1.43366	4.27911	57.5464
6.30303	1.43366	4.27911	57.4354
6.40404	1.43366	4.27911	57.3141
6.50505	1.43366	4.27911	57.1821
6.60606	1.43366	4.27911	57.0397
6.70707	1.43366	4.27911	56.8875
6.80808	1.43366	4.27911	56.7266
6.90909	1.43366	4.27911	56.5583
7.0101	1.43366	4.27911	56.3837
7.11111	1.43366	4.27911	56.2039
7.21212	1.43366	4.27911	56.0197
7.31313	1.43366	4.27911	55.832
7.41414	1.43366	4.27911	55.6414
7.51515	1.43366	4.27911	55.4485
7.61616	1.43366	4.27911	55.2538
7.71717	1.43366	4.27911	55.0575
7.81818	1.43366	4.27911	54.8601
7.91919	1.43366	4.27911	54.6618
8.0202	1.43366	4.27911	54.4627
8.12121	1.43366	4.27911	54.2629
8.22222	1.43366	4.27911	54.0627
8.32323	1.43366	4.27911	53.8622
8.42424	1.43366	4.27911	53.6613
8.52525	1.43366	4.27911	53.4601
8.62626	1.43366	4.27911	53.2588
8.72727	1.43366	4.27911	53.0573
8.82828	1.43366	4.27911	52.8557
8.92929	1.43366	4.27911	52.654
9.0303	1.43366	4.27911	52.4521
9.13131	1.43366	4.27911	52.2502
9.23232	1.43366	4.27911	52.0482
9.33333	1.43366	4.27911	51.8461
9.43434	1.43366	4.27911	51.6439
9.53535	1.43366	4.27911	51.4416
9.63636	1.43366	4.27911	51.2392
9.73737	1.43366	4.27911	51.0366
9.83838	1.43366	4.27911	50.8338
9.93939	1.43366	4.27911	50.6308
10.0404	1.43366	4.27911	50.4275
10.1414	1.43366	4.27911	50.2238
10.2424	1.43366	4.27911	50.0196
10.3434	1.43366	4.27911	49.8148
10.4444	1.43366	4.27911	49.6092
10.5455	1.43366	4.27911	49.4026
10.6465	1.43366	4.27911	49.1947
10.7475	1.43366	4.27911	48.9853
10.8485	1.43366	4.27911	48.774
10.9495	1.43366	4.27911	48.5604
11.0505	1.43366	4.27911	48.3439
11.1515	1.43366	4.27911	48.1242
11.2525	1.43366	4.27911	47.9005
11.3535	1.43366	4.27911	47.6723
11.4545	1.43366	4.27911	47.4392
11.5556	1.43366	4.27911	47.2006
11.6566	1.43366	4.27911	46.9562
11.7576	1.43366	4.27911	46.7057
11.8586	1.43366	4.27911	46.4491
11.9596	1.43366	4.27911	46.1865
12.0606	1.43366	4.27911	45.9181
12.1616	1.43366	4.27911	45.6443
12.2626	1.43366	4.27911	45.3656
12.3636	1.43366	4.27911	45.0823
12.4646	1.43366	4.27911	44.795
12.5657	1.43366	4.27911	44.5042
12.6667	1.43366	4.27911	44.2102
12.7677	1.43366	4.27911	43.9134
12.8687	1.43366	4.27911	43.6141
12.9697	1.43366	4.27911	43.3124
13.0707	1.43366	4.27911	43.0085
13.1717	1.43366	4.27911	42.7024
13.2727	1.43366	4.27911	42.3941
13.3737	1.43366	4.27911	42.0835
13.4747	1.43366	4.27911	41.7703
13.5758	1.43366	4.27911	41.4544
13.6768	1.43366	4.27911	41.1353
13.7778	1.43366	4.27911	40.8127
13.8788	1.43366	4.27911	40.4858
13.9798	1.43366	4.27911	40.154
14.0808	1.43366	4.27911	39.8165
14.1818	1.43366	4.27911	39.4722
14.2828	1.43366	4.27911	39.1198
14.3838	1.43366	4.27911	38.7577
14.4848	1.43366	4.27911	38.3842
14.5859	1.43366	4.27911	37.9967
14.6869	1.43366	4.27911	37.5927
14.7879	1.43366	4.27911	37.1685
14.8889	1.43366	4.27911	36.7199
14.9899	1.43366	4.27911	36.2416
15.0909	1.43366	4.27911	35.7272
15.1919	1.43366	4.27911	35.1683
15.2929	1.43366	4.27911	34.555
15.3939	1.43366	4.27911	33.8746
15.4949	1.43366	4.27911	33.1111
15.596	1.43366	4.27911	32.2444
15.697	1.43366	4.27911	31.2488
15.798	1.43366	4.27911	30.0902
15.899	1.43366	4.27911	28.7117
16	1.43366	4.27911	-inf
6	1.45407	4.36465	57.711
6.10101	1.45407	4.36465	57.6144
6.20202	1.45407	4.36465	57.5115
6.30303	1.45407	4.36465	57.3999
6.40404	1.45407	4.36465	57.2782
6.50505	1.45407	4.36465	57.1459
6.60606	1.45407	4.36465	57.0032
6.70707	1.45407	4.36465	56.8507
6.80808	1.45407	4.36465	56.6897
6.90909	1.45407	4.36465	56.5213
7.0101	1.45407	4.36465	56.3466
7.11111	1.45407	4.36465	56.1667
7.21212	1.45407	4.36465	55.9824
7.31313	1.45407	4.36465	55.7946
7.41414	1.45407	4.36465	55.604
7.51515	1.45407	4.36465	55.4111
7.61616	1.45407	4.36465	55.2163
7.71717	1.45407	4.36465	55.0201
7.81818	1.45407	4.36465	54.8227
7.91919	1.45407	4.36465	54.6243
8.0202	1.45407	4.36465	54.4252
8.12121	1.45407	4.36465	54.2255
8.22222	1.45407	4.36465	54.0253
8.32323	1.45407	4.36465	53.8247
8.42424	1.45407	4.36465	53.6238
8.52525	1.45407	4.36465	53.4226
8.62626	1.45407	4.36465	53.2213
8.72727	1.45407	4.36465	53.0198
8.82828	1.45407	4.36465	52.8182
8.92929	1.45407	4.36465	52.6164
9.0303	1.45407	4.36465	52.4146
9.13131	1.45407	4.36465	52.2127
9.23232	1.45407	4.36465	52.0106
9.33333	1.45407	4.36465	51.8085
9.43434	1.45407	4.36465	51.6063
9.53535	1.45407	4.36465	51.404
9.63636	1.45407	4.36465	51.2015
9.73737	1.45407	4.36465	50.9989
9.83838	1.45407	4.36465	50.7961
9.93939	1.45407	4.36465	50.593
10.0404	1.45407	4.36465	50.3896
10.1414	1.45407	4.36465	50.1858
10.2424	1.45407	4.36465	49.9815
10.3434	1.45407	4.36465	49.7766
10.4444	1.45407	4.36465	49.5708
10.5455	1.45407	4.36465	49.364
10.6465	1.45407	4.36465	49.1559
10.7475	1.45407	4.36465	48.9462
10.8485	1.45407	4.36465	48.7345
10.9495	1.45407	4.36465	48.5205
11.0505	1.45407	4.36465	48.3035
11.1515	1.45407	4.36465	48.0831
11.2525	1.45407	4.36465	47.8588
11.3535	1.45407	4.36465	47.6299
11.4545	1.45407	4.36465	47.396
11.5556	1.45407	4.36465	47.1566
11.6566	1.45407	4.36465	46.9113
11.7576	1.45407	4.36465	46.66
11.8586	1.45407	4.36465	46.4026
11.9596	1.45407	4.36465	46.1392
12.0606	1.45407	4.36465	45.87
12.1616	1.45407	4.36465	45.5955
12.2626	1.45407	4.36465	45.3162
12.3636	1.45407	4.36465	45.0324
12.4646	1.45407	4.36465	44.7446
12.5657	1.45407	4.36465	44.4534
12.6667	1.45407	4.36465	44.1591
12.7677	1.45407	4.36465	43.862
12.8687	1.45407	4.36465	43.5625
12.9697	1.45407	4.36465	43.2606
13.0707	1.45407	4.36465	42.9565
13.1717	1.45407	4.36465	42.6503
13.2727	1.45407	4.36465	42.3419
13.3737	1.45407	4.36465	42.0312
13.4747	1.45407	4.36465	41.718
13.5758	1.45407	4.36465	41.4021
13.6768	1.45407	4.36465	41.083
13.7778	1.45407	4.36465	40.7602
13.8788	1.45407	4.36465	40.4334
13.9798	1.45407	4.36465	40.1016
14.0808	1.45407	4.36465	39.7641
14.1818	1.45407	4.36465	39.4197
14.2828	1.45407	4.36465	39.0673
14.3838	1.45407	4.36465	38.7052
14.4848	1.45407	4.36465	38.3317
14.5859	1.45407	4.36465	37.9442
14.6869	1.45407	4.36465	37.5402
14.7879	1.45407	4.36465	37.116
14.8889	1.45407	4.36465	36.6674
14.9899	1.45407	4.36465	36.1891
15.0909	1.45407	4.36465	35.6746
15.1919	1.45407	4.36465	35.1158
15.2929	1.45407	4.36465	34.5025
15.3939	1.45407	4.36465	33.8221
15.4949	1.45407	4.36465	33.0586
15.596	1.45407	4.36465	32.1919
15.697	1.45407	4.36465	31.1963
15.798	1.45407	4.36465	30.0377
15.899	1.45407	4.36465	28.6592
16	1.45407	4.36465	-inf
6	1.47448	4.45317	57.6773
6.10101	1.47448	4.45317	57.5801
6.20202	1.47448	4.45317	57.4766
6.30303	1.47448	4.45317	57.3645
6.40404	1.47448	4.45317	57.2425
6.50505	1.47448	4.45317	57.1098
6.60606	1.47448	4.45317	56.9668
6.70707	1.47448	4.45317	56.8142
6.80808	1.47448	4.45317	56.653
6.90909	1.47448	4.45317	56.4845
7.0101	1.47448	4.45317	56.3097
7.11111	1.47448	4.45317	56.1296
7.21212	1.47448	4.45317	55.9453
7.31313	1.47448	4.45317	55.7575
7.41414	1.47448	4.45317	55.5669
7.51515	1.47448	4.45317	55.3739
7.61616	1.47448	4.45317	55.1791
7.71717	1.47448	4.45317	54.9829
7.81818	1.47448	4.45317	54.7854
7.91919	1.47448	4.45317	54.5871
8.0202	1.47448	4.45317	54.3879
8.12121	1.47448	4.45317	54.1882
8.22222	1.47448	4.45317	53.988
8.32323	1.47448	4.45317	53.7874
8.42424	1.47448	4.45317	53.5865
8.52525	1.47448	4.45317	53.3853
8.62626	1.47448	4.45317	53.184
8.72727	1.47448	4.45317	52.9825
8.82828	1.47448	4.45317	52.7809
8.92929	1.47448	4.45317	52.5791
9.0303	1.47448	4.45317	52.3773
9.13131	1.47448	4.45317	52.1753
9.23232	1.47448	4.45317	51.9733
9.33333	1.47448	4.45317	51.7712
9.43434	1.47448	4.45317	51.5689
9.53535	1.47448	4.45317	51.3666
9.63636	1.47448	4.45317	51.1641
9.73737	1.47448	4.45317	50.9614
9.83838	1.47448	4.45317	50.7586
9.93939	1.47448	4.45317	50.5554
10.0404	1.47448	4.45317	50.352
10.1414	1.47448	4.45317	50.1481
10.2424	1.47448	4.45317	49.9437
10.3434	1.47448	4.45317	49.7386
10.4444	1.47448	4.45317	49.5326
10.5455	1.47448	4.45317	49.3256
10.6465	1.47448	4.45317	49.1172
10.7475	1.47448	4.45317	48.9072
10.8485	1.47448	4.45317	48.6952
10.9495	1.47448	4.45317	48.4807
11.0505	1.47448	4.45317	48.2632
11.1515	1.47448	4.45317	48.0423
11.2525	1.47448	4.45317	47.8173
11.3535	1.47448	4.45317	47.5877
11.4545	1.47448	4.45317	47.353
11.5556	1.47448	4.45317	47.1128
11.6566	1.47448	4.45317	46.8666
11.7576	1.47448	4.45317	46.6144
11.8586	1.47448	4.45317	46.3562
11.9596	1.47448	4.45317	46.092
12.0606	1.47448	4.45317	45.8221
12.1616	1.47448	4.45317	45.5469
12.2626	1.47448	4.45317	45.267
12.3636	1.47448	4.45317	44.9826
12.4646	1.47448	4.45317	44.6944
12.5657	1.47448	4.45317	44.4028
12.6667	1.47448	4.45317	44.1082
12.7677	1.47448	4.45317	43.8109
12.8687	1.47448	4.45317	43.5111
12.9697	1.47448	4.45317	43.209
13.0707	1.47448	4.45317	42.9048
13.1717	1.47448	4.45317	42.5985
13.2727	1.47448	4.45317	42.29
13.3737	1.47448	4.45317	41.9792
13.4747	1.47448	4.45317	41.666
13.5758	1.47448	4.45317	41.35
13.6768	1.47448	4.45317	41.0308
13.7778	1.47448	4.45317	40.7081
13.8788	1.47448	4.45317	40.3812
13.9798	1.47448	4.45317	40.0494
14.0808	1.47448	4.45317	39.7118
14.1818	1.47448	4.45317	39.3675
14.2828	1.47448	4.45317	39.0151
14.3838	1.47448	4.45317	38.653
14.4848	1.47448	4.45317	38.2794
14.5859	1.47448	4.45317	37.892
14.6869	1.47448	4.45317	37.4879
14.7879	1.47448	4.45317	37.0637
14.8889	1.47448	4.45317	36.6151
14.9899	1.47448	4.45317	36.1368
15.0909	1.47448	4.45317	35.6224
15.1919	1.47448	4.45317	35.0635
15.2929	1.47448	4.45317	34.4502
15.3939	1.47448	4.45317	33.7698
15.4949	1.47448	4.45317	33.0063
15.596	1.47448	4.45317	32.1397
15.697	1.47448	4.45317	31.144
15.798	1.47448	4.45317	29.9854
15.899	1.47448	4.45317	28.6069
16	1.47448	4.45317	-inf
6	1.49489	4.5448	57.6436
6.10101	1.49489	4.5448	57.5458
6.20202	1.49489	4.5448	57.4417
6.30303	1.49489	4.5448	57.3292
6.40404	1.49489	4.5448	57.2068
6.50505	1.49489	4.5448	57.0738
6.60606	1.49489	4.5448	56.9306
6.70707	1.49489	4.5448	56.7778
6.80808	1.49489	4.5448	56.6165
6.90909	1.49489	4.5448	56.4478
7.0101	1.49489	4.5448	56.2729
7.11111	1.49489	4.5448	56.0928
7.21212	1.49489	4.5448	55.9084
7.31313	1.49489	4.5448	55.7206
7.41414	1.49489	4.5448	55.5299
7.51515	1.49489	4.5448	55.3369
7.61616	1.49489	4.5448	55.1421
7.71717	1.49489	4.5448	54.9458
7.81818	1.49489	4.5448	54.7484
7.91919	1.49489	4.5448	54.55
8.0202	1.49489	4.5448	54.3508
8.12121	1.49489	4.5448	54.1511
8.22222	1.49489	4.5448	53.9509
8.32323	1.49489	4.5448	53.7503
8.42424	1.49489	4.5448	53.5494
8.52525	1.49489	4.5448	53.3482
8.62626	1.49489	4.5448	53.1469
8.72727	1.49489	4.5448	52.9454
8.82828	1.49489	4.5448	52.7437
8.92929	1.49489	4.5448	52.542
9.0303	1.49489	4.5448	52.3401
9.13131	1.49489	4.5448	52.1382
9.23232	1.49489	4.5448	51.9361
9.33333	1.49489	4.5448	51.734
9.43434	1.49489	4.5448	51.5317
9.53535	1.49489	4.5448	51.3293
9.63636	1.49489	4.5448	51.1268
9.73737	1.49489	4.5448	50.9241
9.83838	1.49489	4.5448	50.7212
9.93939	1.49489	4.5448	50.518
10.0404	1.49489	4.5448	50.3145
10.1414	1.49489	4.5448	50.1105
10.2424	1.49489	4.5448	49.906
10.3434	1.49489	4.5448	49.7007
10.4444	1.49489	4.5448	49.4946
10.5455	1.49489	4.5448	49.2873
10.6465	1.49489	4.5448	49.0787
10.7475	1.49489	4.5448	48.8684
10.8485	1.49489	4.5448	48.656
10.9495	1.49489	4.5448	48.4411
11.0505	1.49489	4.5448	48.2231
11.1515	1.49489	4.5448	48.0016
11.2525	1.49489	4.5448	47.7759
11.3535	1.49489	4.5448	47.5456
11.4545	1.49489	4.5448	47.3101
11.5556	1.49489	4.5448	47.069
11.6566	1.49489	4.5448	46.822
11.7576	1.49489	4.5448	46.569
11.8586	1.49489	4.5448	46.3099
11.9596	1.49489	4.5448	46.0449
12.0606	1.49489	4.5448	45.7743
12.1616	1.49489	4.5448	45.4984
12.2626	1.49489	4.5448	45.2179
12.3636	1.49489	4.5448	44.933
12.4646	1.49489	4.5448	44.6444
12.5657	1.49489	4.5448	44.3524
12.6667	1.49489	4.5448	44.0575
12.7677	1.49489	4.5448	43.7599
12.8687	1.49489	4.5448	43.4599
12.9697	1.49489	4.5448	43.1577
13.0707	1.49489	4.5448	42.8533
13.1717	1.49489	4.5448	42.5469
13.2727	1.49489	4.5448	42.2383
13.3737	1.49489	4.5448	41.9274
13.4747	1.49489	4.5448	41.6141
13.5758	1.49489	4.5448	41.2981
13.6768	1.49489	4.5448	40.9789
13.7778	1.49489	4.5448	40.6561
13.8788	1.49489	4.5448	40.3292
13.9798	1.49489	4.5448	39.9974
14.0808	1.49489	4.5448	39.6598
14.1818	1.49489	4.5448	39.3154
14.2828	1.49489	4.5448	38.963
14.3838	1.49489	4.5448	38.6009
14.4848	1.49489	4.5448	38.2273
14.5859	1.49489	4.5448	37.8399
14.6869	1.49489	4.5448	37.4358
14.7879	1.49489	4.5448	37.0116
14.8889	1.49489	4.5448	36.563
14.9899	1.49489	4.5448	36.0848
15.0909	1.49489	4.5448	35.5703
15.1919	1.49489	4.5448	35.0115
15.2929	1.49489	4.5448	34.3982
15.3939	1.49489	4.5448	33.7177
15.4949	1.49489	4.5448	32.9542
15.596	1.49489	4.5448	32.0876
15.697	1.49489	4.5448	31.0919
15.798	1.49489	4.5448	29.9333
15.899	1.49489	4.5448	28.5548
16	1.49489	4.5448	-inf
6	1.5153	4.63967	57.6098
6.10101	1.5153	4.63967	57.5114
6.20202	1.5153	4.63967	57.4068
6.30303	1.5153	4.63967	57.2939
6.40404	1.5153	4.63967	57.1711
6.50505	1.5153	4.63967	57.0379
6.60606	1.5153	4.63967	56.8944
6.70707	1.5153	4.63967	56.7415
6.80808	1.5153	4.63967	56.58
6.90909	1.5153	4.63967	56.4112
7.0101	1.5153	4.63967	56.2362
7.11111	1.5153	4.63967	56.0561
7.21212	1.5153	4.63967	55.8717
7.31313	1.5153	4.63967	55.6838
7.41414	1.5153	4.63967	55.493
7.51515	1.5153	4.63967	55.3
7.61616	1.5153	4.63967	55.1052
7.71717	1.5153	4.63967	54.9089
7.81818	1.5153	4.63967	54.7114
7.91919	1.5153	4.63967	54.513
8.0202	1.5153	4.63967	54.3139
8.12121	1.5153	4.63967	54.1141
8.22222	1.5153	4.63967	53.9139
8.32323	1.5153	4.63967	53.7133
8.42424	1.5153	4.63967	53.5124
8.52525	1.5153	4.63967	53.3112
8.62626	1.5153	4.63967	53.1099
8.72727	1.5153	4.63967	52.9084
8.82828	1.5153	4.63967	52.7067
8.92929	1.5153	4.63967	52.505
9.0303	1.5153	4.63967	52.3031
9.13131	1.5153	4.63967	52.1011
9.23232	1.5153	4.63967	51.8991
9.33333	1.5153	4.63967	51.6969
9.43434	1.5153	4.63967	51.4946
9.53535	1.5153	4.63967	51.2922
9.63636	1.5153	4.63967	51.0897
9.73737	1.5153	4.63967	50.8869
9.83838	1.5153	4.63967	50.684
9.93939	1.5153	4.63967	50.4807
10.0404	1.5153	4.63967	50.2771
10.1414	1.5153	4.63967	50.073
10.2424	1.5153	4.63967	49.8684
10.3434	1.5153	4.63967	49.663
10.4444	1.5153	4.63967	49.4567
10.5455	1.5153	4.63967	49.2492
10.6465	1.5153	4.63967	49.0403
10.7475	1.5153	4.63967	48.8297
10.8485	1.5153	4.63967	48.6169
10.9495	1.5153	4.63967	48.4015
11.0505	1.5153	4.63967	48.183
11.1515	1.5153	4.63967	47.9609
11.2525	1.5153	4.63967	47.7346
11.3535	1.5153	4.63967	47.5035
11.4545	1.5153	4.63967	47.2672
11.5556	1.5153	4.63967	47.0253
11.6566	1.5153	4.63967	46.7775
11.7576	1.5153	4.63967	46.5236
11.8586	1.5153	4.63967	46.2636
11.9596	1.5153	4.63967	45.9978
12.0606	1.5153	4.63967	45.7265
12.1616	1.5153	4.63967	45.45
12.2626	1.5153	4.63967	45.1689
12.3636	1.5153	4.63967	44.8835
12.4646	1.5153	4.63967	44.5944
12.5657	1.5153	4.63967	44.3021
12.6667	1.5153	4.63967	44.0068
12.7677	1.5153	4.63967	43.709
12.8687	1.5153	4.63967	43.4088
12.9697	1.5153	4.63967	43.1064
13.0707	1.5153	4.63967	42.8019
13.1717	1.5153	4.63967	42.4954
13.2727	1.5153	4.63967	42.1867
13.3737	1.5153	4.63967	41.8758
13.4747	1.5153	4.63967	41.5624
13.5758	1.5153	4.63967	41.2463
13.6768	1.5153	4.63967	40.9271
13.7778	1.5153	4.63967	40.6043
13.8788	1.5153	4.63967	40.2773
13.9798	1.5153	4.63967	39.9455
14.0808	1.5153	4.63967	39.6079
14.1818	1.5153	4.63967	39.2635
14.2828	1.5153	4.63967	38.9111
14.3838	1.5153	4.63967	38.549
14.4848	1.5153	4.63967	38.1754
14.5859	1.5153	4.63967	37.788
14.6869	1.5153	4.63967	37.3839
14.7879	1.5153	4.63967	36.9597
14.8889	1.5153	4.63967	36.5111
14.9899	1.5153	4.63967	36.0328
15.0909	1.5153	4.63967	35.5183
15.1919	1.5153	4.63967	34.9595
15.2929	1.5153	4.63967	34.3462
15.3939	1.5153	4.63967	33.6658
15.4949	1.5153	4.63967	32.9023
15.596	1.5153	4.63967	32.0356
15.697	1.5153	4.63967	31.04
15.798	1.5153	4.63967	29.8814
15.899	1.5153	4.63967	28.5029
16	1.5153	4.63967	-inf
6	1.5357	4.72455	57.5713
6.10101	1.5357	4.72455	57.4723
6.20202	1.5357	4.72455	57.3673
6.30303	1.5357	4.72455	57.2539
6.40404	1.5357	4.72455	57.1308
6.50505	1.5357	4.72455	56.9973
6.60606	1.5357	4.72455	56.8536
6.70707	1.5357	4.72455	56.7004
6.80808	1.5357	4.72455	56.5388
6.90909	1.5357	4.72455	56.3699
7.0101	1.5357	4.72455	56.1948
7.11111	1.5357	4.72455	56.0146
7.21212	1.5357	4.72455	55.8301
7.31313	1.5357	4.72455	55.6422
7.41414	1.5357	4.72455	55.4514
7.51515	1.5357	4.72455	55.2584
7.61616	1.5357	4.72455	55.0636
7.71717	1.5357	4.72455	54.8673
7.81818	1.5357	4.72455	54.6698
7.91919	1.5357	4.72455	54.4714
8.0202	1.5357	4.72455	54.2722
8.12121	1.5357	4.72455	54.0724
8.22222	1.5357	4.72455	53.8722
8.32323	1.5357	4.72455	53.6716
8.42424	1.5357	4.72455	53.4707
8.52525	1.5357	4.72455	53.2695
8.62626	1.5357	4.72455	53.0682
8.72727	1.5357	4.72455	52.8667
8.82828	1.5357	4.72455	52.665
8.92929	1.5357	4.72455	52.4632
9.0303	1.5357	4.72455	52.2613
9.13131	1.5357	4.72455	52.0594
9.23232	1.5357	4.72455	51.8573
9.33333	1.5357	4.72455	51.6551
9.43434	1.5357	4.72455	51.4528
9.53535	1.5357	4.72455	51.2504
9.63636	1.5357	4.72455	51.0478
9.73737	1.5357	4.72455	50.845
9.83838	1.5357	4.72455	50.642
9.93939	1.5357	4.72455	50.4387
10.0404	1.5357	4.72455	50.235
10.1414	1.5357	4.72455	50.0308
10.2424	1.5357	4.72455	49.826
10.3434	1.5357	4.72455	49.6205
10.4444	1.5357	4.72455	49.414
10.5455	1.5357	4.72455	49.2063
10.6465	1.5357	4.72455	48.9972
10.7475	1.5357	4.72455	48.7862
10.8485	1.5357	4.72455	48.573
10.9495	1.5357	4.72455	48.3572
11.0505	1.5357	4.72455	48.1382
11.1515	1.5357	4.72455	47.9155
11.2525	1.5357	4.72455	47.6885
11.3535	1.5357	4.72455	47.4567
11.4545	1.5357	4.72455	47.2197
11.5556	1.5357	4.72455	46.9769
11.6566	1.5357	4.72455	46.7283
11.7576	1.5357	4.72455	46.4735
11.8586	1.5357	4.72455	46.2128
11.9596	1.5357	4.72455	45.9463
12.0606	1.5357	4.72455	45.6742
12.1616	1.5357	4.72455	45.3971
12.2626	1.5357	4.72455	45.1154
12.3636	1.5357	4.72455	44.8296
12.4646	1.5357	4.72455	44.5401
12.5657	1.5357	4.72455	44.2474
12.6667	1.5357	4.72455	43.9519
12.7677	1.5357	4.72455	43.6538
12.8687	1.5357	4.72455	43.3534
12.9697	1.5357	4.72455	43.0508
13.0707	1.5357	4.72455	42.7462
13.1717	1.5357	4.72455	42.4396
13.2727	1.5357	4.72455	42.1308
13.3737	1.5357	4.72455	41.8198
13.4747	1.5357	4.72455	41.5064
13.5758	1.5357	4.72455	41.1902
13.6768	1.5357	4.72455	40.871
13.7778	1.5357	4.72455	40.5482
13.8788	1.5357	4.72455	40.2212
13.9798	1.5357	4.72455	39.8893
14.0808	1.5357	4.72455	39.5518
14.1818	1.5357	4.72455	39.2074
14.2828	1.5357	4.72455	38.8549
14.3838	1.5357	4.72455	38.4928
14.4848	1.5357	4.72455	38.1192
14.5859	1.5357	4.72455	37.7318
14.6869	1.5357	4.72455	37.3277
14.7879	1.5357	4.72455	36.9035
14.8889	1.5357	4.72455	36.4549
14.9899	1.5357	4.72455	35.9766
15.0909	1.5357	4.72455	35.4621
15.1919	1.5357	4.72455	34.9033
15.2929	1.5357	4.72455	34.29
15.3939	1.5357	4.72455	33.6096
15.4949	1.5357	4.72455	32.8461
15.596	1.5357	4.72455	31.9794
15.697	1.5357	4.72455	30.9838
15.798	1.5357	4.72455	29.8252
15.899	1.5357	4.72455	28.4467
16	1.5357	4.72455	-inf
6	1.55611	4.82629	57.5373
6.10101	1.55611	4.82629	57.4378
6.20202	1.55611	4.82629	57.3323
6.30303	1.55611	4.82629	57.2186
6.40404	1.55611	4.82629	57.0952
6.50505	1.55611	4.82629	56.9614
6.60606	1.55611	4.82629	56.8175
6.70707	1.55611	4.82629	56.6642
6.80808	1.55611	4.82629	56.5025
6.90909	1.55611	4.82629	56.3335
7.0101	1.55611	4.82629	56.1583
7.11111	1.55611	4.82629	55.978
7.21212	1.55611	4.82629	55.7935
7.31313	1.55611	4.82629	55.6055
7.41414	1.55611	4.82629	55.4147
7.51515	1.55611	4.82629	55.2217
7.61616	1.55611	4.82629	55.0268
7.71717	1.55611	4.82629	54.8305
7.81818	1.55611	4.82629	54.633
7.91919	1.55611	4.82629	54.4346
8.0202	1.55611	4.82629	54.2354
8.12121	1.55611	4.82629	54.0356
8.22222	1.55611	4.82629	53.8354
8.32323	1.55611	4.82629	53.6348
8.42424	1.55611	4.82629	53.4339
8.52525	1.55611	4.82629	53.2327
8.62626	1.55611	4.82629	53.0313
8.72727	1.55611	4.82629	52.8298
8.82828	1.55611	4.82629	52.6282
8.92929	1.55611	4.82629	52.4264
9.0303	1.55611	4.82629	52.2245
9.13131	1.55611	4.82629	52.0225
9.23232	1.55611	4.82629	51.8204
9.33333	1.55611	4.82629	51.6182
9.43434	1.55611	4.82629	51.4159
9.53535	1.55611	4.82629	51.2134
9.63636	1.55611	4.82629	51.0108
9.73737	1.55611	4.82629	50.808
9.83838	1.55611	4.82629	50.6049
9.93939	1.55611	4.82629	50.4015
10.0404	1.55611	4.82629	50.1978
10.1414	1.55611	4.82629	49.9935
10.2424	1.55611	4.82629	49.7886
10.3434	1.55611	4.82629	49.5829
10.4444	1.55611	4.82629	49.3762
10.5455	1.55611	4.82629	49.1683
10.6465	1.55611	4.82629	48.9589
10.7475	1.55611	4.82629	48.7476
10.8485	1.55611	4.82629	48.534
10.9495	1.55611	4.82629	48.3177
11.0505	1.55611	4.82629	48.0982
11.1515	1.55611	4.82629	47.8748
11.2525	1.55611	4.82629	47.6472
11.3535	1.55611	4.82629	47.4146
11.4545	1.55611	4.82629	47.1768
11.5556	1.55611	4.82629	46.9332
11.6566	1.55611	4.82629	46.6837
11.7576	1.55611	4.82629	46.4281
11.8586	1.55611	4.82629	46.1665
11.9596	1.55611	4.82629	45.8992
12.0606	1.55611	4.82629	45.6265
12.1616	1.55611	4.82629	45.3487
12.2626	1.55611	4.82629	45.0664
12.3636	1.55611	4.82629	44.7801
12.4646	1.55611	4.82629	44.4902
12.5657	1.55611	4.82629	44.1972
12.6667	1.55611	4.82629	43.9013
12.7677	1.55611	4.82629	43.603
12.8687	1.55611	4.82629	43.3024
12.9697	1.55611	4.82629	42.9997
13.0707	1.55611	4.82629	42.695
13.1717	1.55611	4.82629	42.3882
13.2727	1.55611	4.82629	42.0794
13.3737	1.55611	4.82629	41.7683
13.4747	1.55611	4.82629	41.4548
13.5758	1.55611	4.82629	41.1386
13.6768	1.55611	4.82629	40.8193
13.7778	1.55611	4.82629	40.4965
13.8788	1.55611	4.82629	40.1695
13.9798	1.55611	4.82629	39.8376
14.0808	1.55611	4.82629	39.5
14.1818	1.55611	4.82629	39.1556
14.2828	1.55611	4.82629	38.8032
14.3838	1.55611	4.82629	38.4411
14.4848	1.55611	4.82629	38.0675
14.5859	1.55611	4.82629	37.68
14.6869	1.55611	4.82629	37.2759
14.7879	1.55611	4.82629	36.8517
14.8889	1.55611	4.82629	36.4031
14.9899	1.55611	4.82629	35.9248
15.0909	1.55611	4.82629	35.4104
15.1919	1.55611	4.82629	34.8515
15.2929	1.55611	4.82629	34.2382
15.3939	1.55611	4.82629	33.5578
15.4949	1.55611	4.82629	32.7943
15.596	1.55611	4.82629	31.9276
15.697	1.55611	4.82629	30.932
15.798	1.55611	4.82629	29.7734
15.899	1.55611	4.82629	28.3949
16	1.55611	4.82629	-inf
6	1.57652	4.91837	57.4985
6.10101	1.57652	4.91837	57.3985
6.20202	1.57652	4.91837	57.2926
6.30303	1.57652	4.91837	57.1785
6.40404	1.57652	4.91837	57.0547
6.50505	1.57652	4.91837	56.9207
6.60606	1.57652	4.91837	56.7766
6.70707	1.57652	4.91837	56.6231
6.80808	1.57652	4.91837	56.4613
6.90909	1.57652	4.91837	56.2922
7.0101	1.57652	4.91837	56.117
7.11111	1.57652	4.91837	55.9366
7.21212	1.57652	4.91837	55.752
7.31313	1.57652	4.91837	55.564
7.41414	1.57652	4.91837	55.3732
7.51515	1.57652	4.91837	55.1801
7.61616	1.57652	4.91837	54.9853
7.71717	1.57652	4.91837	54.7889
7.81818	1.57652	4.91837	54.5914
7.91919	1.57652	4.91837	54.393
8.0202	1.57652	4.91837	54.1938
8.12121	1.57652	4.91837	53.994
8.22222	1.57652	4.91837	53.7938
8.32323	1.57652	4.91837	53.5932
8.42424	1.57652	4.91837	53.3922
8.52525	1.57652	4.91837	53.1911
8.62626	1.57652	4.91837	52.9897
8.72727	1.57652	4.91837	52.7882
8.82828	1.57652	4.91837	52.5865
8.92929	1.57652	4.91837	52.3847
9.0303	1.57652	4.91837	52.1828
9.13131	1.57652	4.91837	51.9808
9.23232	1.57652	4.91837	51.7787
9.33333	1.57652	4.91837	51.5765
9.43434	1.57652	4.91837	51.3741
9.53535	1.57652	4.91837	51.1717
9.63636	1.57652	4.91837	50.969
9.73737	1.57652	4.91837	50.7661
9.83838	1.57652	4.91837	50.563
9.93939	1.57652	4.91837	50.3596
10.0404	1.57652	4.91837	50.1557
10.1414	1.57652	4.91837	49.9513
10.2424	1.57652	4.91837	49.7463
10.3434	1.57652	4.91837	49.5404
10.4444	1.57652	4.91837	49.3336
10.5455	1.57652	4.91837	49.1254
10.6465	1.57652	4.91837	48.9157
10.7475	1.57652	4.91837	48.7041
10.8485	1.57652	4.91837	48.4901
10.9495	1.57652	4.91837	48.2734
11.0505	1.57652	4.91837	48.0533
11.1515	1.57652	4.91837	47.8294
11.2525	1.57652	4.91837	47.601
11.3535	1.57652	4.91837	47.3678
11.4545	1.57652	4.91837	47.1291
11.5556	1.57652	4.91837	46.8847
11.6566	1.57652	4.91837	46.6344
11.7576	1.57652	4.91837	46.378
11.8586	1.57652	4.91837	46.1156
11.9596	1.57652	4.91837	45.8475
12.0606	1.57652	4.91837	45.5741
12.1616	1.57652	4.91837	45.2957
12.2626	1.57652	4.91837	45.0129
12.3636	1.57652	4.91837	44.7261
12.4646	1.57652	4.91837	44.4358
12.5657	1.57652	4.91837	44.1425
12.6667	1.57652	4.91837	43.8463
12.7677	1.57652	4.91837	43.5478
12.8687	1.57652	4.91837	43.247
12.9697	1.57652	4.91837	42.9442
13.0707	1.57652	4.91837	42.6393
13.1717	1.57652	4.91837	42.3324
13.2727	1.57652	4.91837	42.0235
13.3737	1.57652	4.91837	41.7124
13.4747	1.57652	4.91837	41.3989
13.5758	1.57652	4.91837	41.0826
13.6768	1.57652	4.91837	40.7633
13.7778	1.57652	4.91837	40.4404
13.8788	1.57652	4.91837	40.1134
13.9798	1.57652	4.91837	39.7815
14.0808	1.57652	4.91837	39.4439
14.1818	1.57652	4.91837	39.0995
14.2828	1.57652	4.91837	38.747
14.3838	1.57652	4.91837	38.3849
14.4848	1.57652	4.91837	38.0113
14.5859	1.57652	4.91837	37.6239
14.6869	1.57652	4.91837	37.2198
14.7879	1.57652	4.91837	36.7956
14.8889	1.57652	4.91837	36.347
14.9899	1.57652	4.91837	35.8687
15.0909	1.57652	4.91837	35.3542
15.1919	1.57652	4.91837	34.7954
15.2929	1.57652	4.91837	34.1821
15.3939	1.57652	4.91837	33.5016
15.4949	1.57652	4.91837	32.7381
15.596	1.57652	4.91837	31.8715
15.697	1.57652	4.91837	30.8758
15.798	1.57652	4.91837	29.7172
15.899	1.57652	4.91837	28.3387
16	1.57652	4.91837	-inf
6	1.59693	5.02751	57.4641
6.10101	1.59693	5.02751	57.3637
6.20202	1.59693	5.02751	57.2574
6.30303	1.59693	5.02751	57.1429
6.40404	1.59693	5.02751	57.0189
6.50505	1.59693	5.02751	56.8847
6.60606	1.59693	5.02751	56.7404
6.70707	1.59693	5.02751	56.5867
6.80808	1.59693	5.02751	56.4248
6.90909	1.59693	5.02751	56.2556
7.0101	1.59693	5.02751	56.0803
7.11111	1.59693	5.02751	55.8999
7.21212	1.59693	5.02751	55.7153
7.31313	1.59693	5.02751	55.5273
7.41414	1.59693	5.02751	55.3364
7.51515	1.59693	5.02751	55.1433
7.61616	1.59693	5.02751	54.9484
7.71717	1.59693	5.02751	54.7521
7.81818	1.59693	5.02751	54.5545
7.91919	1.59693	5.02751	54.3561
8.0202	1.59693	5.02751	54.1569
8.12121	1.59693	5.02751	53.9571
8.22222	1.59693	5.02751	53.7569
8.32323	1.59693	5.02751	53.5563
8.42424	1.59693	5.02751	53.3553
8.52525	1.59693	5.02751	53.1542
8.62626	1.59693	5.02751	52.9528
8.72727	1.59693	5.02751	52.7513
8.82828	1.59693	5.02751	52.5496
8.92929	1.59693	5.02751	52.3478
9.0303	1.59693	5.02751	52.1459
9.13131	1.59693	5.02751	51.9439
9.23232	1.59693	5.02751	51.7417
9.33333	1.59693	5.02751	51.5395
9.43434	1.59693	5.02751	51.3371
9.53535	1.59693	5.02751	51.1346
9.63636	1.59693	5.02751	50.9319
9.73737	1.59693	5.02751	50.729
9.83838	1.59693	5.02751	50.5258
9.93939	1.59693	5.02751	50.3223
10.0404	1.59693	5.02751	50.1184
10.1414	1.59693	5.02751	49.9139
10.2424	1.59693	5.02751	49.7087
10.3434	1.59693	5.02751	49.5027
10.4444	1.59693	5.02751	49.2956
10.5455	1.59693	5.02751	49.0873
10.6465	1.59693	5.02751	48.8773
10.7475	1.59693	5.02751	48.6653
10.8485	1.59693	5.02751	48.4509
10.9495	1.59693	5.02751	48.2337
11.0505	1.59693	5.02751	48.013
11.1515	1.59693	5.02751	47.7885
11.2525	1.59693	5.02751	47.5594
11.3535	1.59693	5.02751	47.3254
11.4545	1.59693	5.02751	47.0859
11.5556	1.59693	5.02751	46.8407
11.6566	1.59693	5.02751	46.5895
11.7576	1.59693	5.02751	46.3322
11.8586	1.59693	5.02751	46.0691
11.9596	1.59693	5.02751	45.8002
12.0606	1.59693	5.02751	45.5261
12.1616	1.59693	5.02751	45.2471
12.2626	1.59693	5.02751	44.9637
12.3636	1.59693	5.02751	44.6765
12.4646	1.59693	5.02751	44.3858
12.5657	1.59693	5.02751	44.0921
12.6667	1.59693	5.02751	43.7957
12.7677	1.59693	5.02751	43.4969
12.8687	1.59693	5.02751	43.1959
12.9697	1.59693	5.02751	42.8929
13.0707	1.59693	5.02751	42.5879
13.1717	1.59693	5.02751	42.2809
13.2727	1.59693	5.02751	41.9719
13.3737	1.59693	5.02751	41.6608
13.4747	1.59693	5.02751	41.3472
13.5758	1.59693	5.02751	41.0309
13.6768	1.59693	5.02751	40.7115
13.7778	1.59693	5.02751	40.3886
13.8788	1.59693	5.02751	40.0616
13.9798	1.59693	5.02751	39.7297
14.0808	1.59693	5.02751	39.3921
14.1818	1.59693	5.02751	39.0477
14.2828	1.59693	5.02751	38.6952
14.3838	1.59693	5.02751	38.3331
14.4848	1.59693	5.02751	37.9594
14.5859	1.59693	5.02751	37.572
14.6869	1.59693	5.02751	37.1679
14.7879	1.59693	5.02751	36.7437
14.8889	1.59693	5.02751	36.2951
14.9899	1.59693	5.02751	35.8168
15.0909	1.59693	5.02751	35.3023
15.1919	1.59693	5.02751	34.7435
15.2929	1.59693	5.02751	34.1302
15.3939	1.59693	5.02751	33.4497
15.4949	1.59693	5.02751	32.6863
15.596	1.59693	5.02751	31.8196
15.697	1.59693	5.02751	30.824
15.798	1.59693	5.02751	29.6653
15.899	1.59693	5.02751	28.2868
16	1.59693	5.02751	-inf
6	1.61734	5.12728	57.4248
6.10101	1.61734	5.12728	57.3239
6.20202	1.61734	5.12728	57.2172
6.30303	1.61734	5.12728	57.1024
6.40404	1.61734	5.12728	56.9781
6.50505	1.61734	5.12728	56.8437
6.60606	1.61734	5.12728	56.6992
6.70707	1.61734	5.12728	56.5454
6.80808	1.61734	5.12728	56.3834
6.90909	1.61734	5.12728	56.2141
7.0101	1.61734	5.12728	56.0387
7.11111	1.61734	5.12728	55.8583
7.21212	1.61734	5.12728	55.6736
7.31313	1.61734	5.12728	55.4855
7.41414	1.61734	5.12728	55.2947
7.51515	1.61734	5.12728	55.1016
7.61616	1.61734	5.12728	54.9066
7.71717	1.61734	5.12728	54.7103
7.81818	1.61734	5.12728	54.5127
7.91919	1.61734	5.12728	54.3143
8.0202	1.61734	5.12728	54.1151
8.12121	1.61734	5.12728	53.9153
8.22222	1.61734	5.12728	53.715
8.32323	1.61734	5.12728	53.5144
8.42424	1.61734	5.12728	53.3135
8.52525	1.61734	5.12728	53.1123
8.62626	1.61734	5.12728	52.9109
8.72727	1.61734	5.12728	52.7094
8.82828	1.61734	5.12728	52.5077
8.92929	1.61734	5.12728	52.3059
9.0303	1.61734	5.12728	52.104
9.13131	1.61734	5.12728	51.902
9.23232	1.61734	5.12728	51.6998
9.33333	1.61734	5.12728	51.4976
9.43434	1.61734	5.12728	51.2952
9.53535	1.61734	5.12728	51.0926
9.63636	1.61734	5.12728	50.8899
9.73737	1.61734	5.12728	50.687
9.83838	1.61734	5.12728	50.4837
9.93939	1.61734	5.12728	50.2801
10.0404	1.61734	5.12728	50.0761
10.1414	1.61734	5.12728	49.8715
10.2424	1.61734	5.12728	49.6662
10.3434	1.61734	5.12728	49.46
10.4444	1.61734	5.12728	49.2527
10.5455	1.61734	5.12728	49.0441
10.6465	1.61734	5.12728	48.8338
10.7475	1.61734	5.12728	48.6215
10.8485	1.61734	5.12728	48.4067
10.9495	1.61734	5.12728	48.189
11.0505	1.61734	5.12728	47.9678
11.1515	1.61734	5.12728	47.7426
11.2525	1.61734	5.12728	47.5129
11.3535	1.61734	5.12728	47.2781
11.4545	1.61734	5.12728	47.0379
11.5556	1.61734	5.12728	46.7918
11.6566	1.61734	5.12728	46.5397
11.7576	1.61734	5.12728	46.2817
11.8586	1.61734	5.12728	46.0177
11.9596	1.61734	5.12728	45.7482
12.0606	1.61734	5.12728	45.4734
12.1616	1.61734	5.12728	45.1938
12.2626	1.61734	5.12728	44.9099
12.3636	1.61734	5.12728	44.6222
12.4646	1.61734	5.12728	44.3311
12.5657	1.61734	5.12728	44.037
12.6667	1.61734	5.12728	43.7404
12.7677	1.61734	5.12728	43.4414
12.8687	1.61734	5.12728	43.1402
12.9697	1.61734	5.12728	42.8371
13.0707	1.61734	5.12728	42.532
13.1717	1.61734	5.12728	42.2249
13.2727	1.61734	5.12728	41.9158
13.3737	1.61734	5.12728	41.6046
13.4747	1.61734	5.12728	41.2909
13.5758	1.61734	5.12728	40.9746
13.6768	1.61734	5.12728	40.6552
13.7778	1.61734	5.12728	40.3323
13.8788	1.61734	5.12728	40.0053
13.9798	1.61734	5.12728	39.6733
14.0808	1.61734	5.12728	39.3357
14.1818	1.61734	5.12728	38.9913
14.2828	1.61734	5.12728	38.6388
14.3838	1.61734	5.12728	38.2767
14.4848	1.61734	5.12728	37.9031
14.5859	1.61734	5.12728	37.5156
14.6869	1.61734	5.12728	37.1115
14.7879	1.61734	5.12728	36.6873
14.8889	1.61734	5.12728	36.2387
14.9899	1.61734	5.12728	35.7604
15.0909	1.61734	5.12728	35.2459
15.1919	1.61734	5.12728	34.6871
15.2929	1.61734	5.12728	34.0738
15.3939	1.61734	5.12728	33.3933
15.4949	1.61734	5.12728	32.6298
15.596	1.61734	5.12728	31.7632
15.697	1.61734	5.12728	30.7675
15.798	1.61734	5.12728	29.6089
15.899	1.61734	5.12728	28.2304
16	1.61734	5.12728	-inf
6	1.63775	5.2311	57.385
6.10101	1.63775	5.2311	57.2838
6.20202	1.63775	5.2311	57.1767
6.30303	1.63775	5.2311	57.0616
6.40404	1.63775	5.2311	56.9371
6.50505	1.63775	5.2311	56.8024
6.60606	1.63775	5.2311	56.6577
6.70707	1.63775	5.2311	56.5038
6.80808	1.63775	5.2311	56.3417
6.90909	1.63775	5.2311	56.1723
7.0101	1.63775	5.2311	55.9969
7.11111	1.63775	5.2311	55.8164
7.21212	1.63775	5.2311	55.6317
7.31313	1.63775	5.2311	55.4436
7.41414	1.63775	5.2311	55.2527
7.51515	1.63775	5.2311	55.0595
7.61616	1.63775	5.2311	54.8646
7.71717	1.63775	5.2311	54.6682
7.81818	1.63775	5.2311	54.4707
7.91919	1.63775	5.2311	54.2722
8.0202	1.63775	5.2311	54.073
8.12121	1.63775	5.2311	53.8732
8.22222	1.63775	5.2311	53.673
8.32323	1.63775	5.2311	53.4723
8.42424	1.63775	5.2311	53.2714
8.52525	1.63775	5.2311	53.0702
8.62626	1.63775	5.2311	52.8688
8.72727	1.63775	5.2311	52.6673
8.82828	1.63775	5.2311	52.4656
8.92929	1.63775	5.2311	52.2638
9.0303	1.63775	5.2311	52.0618
9.13131	1.63775	5.2311	51.8598
9.23232	1.63775	5.2311	51.6577
9.33333	1.63775	5.2311	51.4554
9.43434	1.63775	5.2311	51.253
9.53535	1.63775	5.2311	51.0504
9.63636	1.63775	5.2311	50.8476
9.73737	1.63775	5.2311	50.6446
9.83838	1.63775	5.2311	50.4413
9.93939	1.63775	5.2311	50.2377
10.0404	1.63775	5.2311	50.0335
10.1414	1.63775	5.2311	49.8288
10.2424	1.63775	5.2311	49.6234
10.3434	1.63775	5.2311	49.417
10.4444	1.63775	5.2311	49.2096
10.5455	1.63775	5.2311	49.0007
10.6465	1.63775	5.2311	48.7901
10.7475	1.63775	5.2311	48.5774
10.8485	1.63775	5.2311	48.3622
10.9495	1.63775	5.2311	48.144
11.0505	1.63775	5.2311	47.9223
11.1515	1.63775	5.2311	47.6965
11.2525	1.63775	5.2311	47.466
11.3535	1.63775	5.2311	47.2305
11.4545	1.63775	5.2311	46.9894
11.5556	1.63775	5.2311	46.7425
11.6566	1.63775	5.2311	46.4896
11.7576	1.63775	5.2311	46.2308
11.8586	1.63775	5.2311	45.966
11.9596	1.63775	5.2311	45.6957
12.0606	1.63775	5.2311	45.4203
12.1616	1.63775	5.2311	45.1401
12.2626	1.63775	5.2311	44.8557
12.3636	1.63775	5.2311	44.5675
12.4646	1.63775	5.2311	44.2761
12.5657	1.63775	5.2311	43.9817
12.6667	1.63775	5.2311	43.6848
12.7677	1.63775	5.2311	43.3856
12.8687	1.63775	5.2311	43.0842
12.9697	1.63775	5.2311	42.7809
13.0707	1.63775	5.2311	42.4757
13.1717	1.63775	5.2311	42.1686
13.2727	1.63775	5.2311	41.8594
13.3737	1.63775	5.2311	41.5481
13.4747	1.63775	5.2311	41.2345
13.5758	1.63775	5.2311	40.9181
13.6768	1.63775	5.2311	40.5987
13.7778	1.63775	5.2311	40.2757
13.8788	1.63775	5.2311	39.9487
13.9798	1.63775	5.2311	39.6167
14.0808	1.63775	5.2311	39.2791
14.1818	1.63775	5.2311	38.9346
14.2828	1.63775	5.2311	38.5821
14.3838	1.63775	5.2311	38.22
14.4848	1.63775	5.2311	37.8464
14.5859	1.63775	5.2311	37.4589
14.6869	1.63775	5.2311	37.0548
14.7879	1.63775	5.2311	36.6306
14.8889	1.63775	5.2311	36.182
14.9899	1.63775	5.2311	35.7037
15.0909	1.63775	5.2311	35.1892
15.1919	1.63775	5.2311	34.6304
15.2929	1.63775	5.2311	34.0171
15.3939	1.63775	5.2311	33.3367
15.4949	1.63775	5.2311	32.5732
15.596	1.63775	5.2311	31.7065
15.697	1.63775	5.2311	30.7109
15.798	1.63775	5.2311	29.5523
15.899	1.63775	5.2311	28.1738
16	1.63775	5.2311	-inf
6	1.65815	5.35236	57.3496
6.10101	1.65815	5.35236	57.2479
6.20202	1.65815	5.35236	57.1405
6.30303	1.65815	5.35236	57.0252
6.40404	1.65815	5.35236	56.9004
6.50505	1.65815	5.35236	56.7655
6.60606	1.65815	5.35236	56.6207
6.70707	1.65815	5.35236	56.4667
6.80808	1.65815	5.35236	56.3044
6.90909	1.65815	5.35236	56.135
7.0101	1.65815	5.35236	55.9595
7.11111	1.65815	5.35236	55.779
7.21212	1.65815	5.35236	55.5942
7.31313	1.65815	5.35236	55.4061
7.41414	1.65815	5.35236	55.2152
7.51515	1.65815	5.35236	55.022
7.61616	1.65815	5.35236	54.8271
7.71717	1.65815	5.35236	54.6307
7.81818	1.65815	5.35236	54.4331
7.91919	1.65815	5.35236	54.2347
8.0202	1.65815	5.35236	54.0354
8.12121	1.65815	5.35236	53.8357
8.22222	1.65815	5.35236	53.6354
8.32323	1.65815	5.35236	53.4347
8.42424	1.65815	5.35236	53.2338
8.52525	1.65815	5.35236	53.0326
8.62626	1.65815	5.35236	52.8312
8.72727	1.65815	5.35236	52.6297
8.82828	1.65815	5.35236	52.428
8.92929	1.65815	5.35236	52.2262
9.0303	1.65815	5.35236	52.0242
9.13131	1.65815	5.35236	51.8222
9.23232	1.65815	5.35236	51.62
9.33333	1.65815	5.35236	51.4177
9.43434	1.65815	5.35236	51.2153
9.53535	1.65815	5.35236	51.0127
9.63636	1.65815	5.35236	50.8099
9.73737	1.65815	5.35236	50.6068
9.83838	1.65815	5.35236	50.4034
9.93939	1.65815	5.35236	50.1997
10.0404	1.65815	5.35236	49.9955
10.1414	1.65815	5.35236	49.7907
10.2424	1.65815	5.35236	49.5851
10.3434	1.65815	5.35236	49.3786
10.4444	1.65815	5.35236	49.1709
10.5455	1.65815	5.35236	48.9617
10.6465	1.65815	5.35236	48.7509
10.7475	1.65815	5.35236	48.5378
10.8485	1.65815	5.35236	48.3222
10.9495	1.65815	5.35236	48.1034
11.0505	1.65815	5.35236	47.8811
11.1515	1.65815	5.35236	47.6546
11.2525	1.65815	5.35236	47.4235
11.3535	1.65815	5.35236	47.1871
11.4545	1.65815	5.35236	46.9452
11.5556	1.65815	5.35236	46.6975
11.6566	1.65815	5.35236	46.4437
11.7576	1.65815	5.35236	46.184
11.8586	1.65815	5.35236	45.9185
11.9596	1.65815	5.35236	45.6474
12.0606	1.65815	5.35236	45.3713
12.1616	1.65815	5.35236	45.0905
12.2626	1.65815	5.35236	44.8056
12.3636	1.65815	5.35236	44.517
12.4646	1.65815	5.35236	44.2251
12.5657	1.65815	5.35236	43.9304
12.6667	1.65815	5.35236	43.6332
12.7677	1.65815	5.35236	43.3338
12.8687	1.65815	5.35236	43.0323
12.9697	1.65815	5.35236	42.7289
13.0707	1.65815	5.35236	42.4235
13.1717	1.65815	5.35236	42.1163
13.2727	1.65815	5.35236	41.8071
13.3737	1.65815	5.35236	41.4957
13.4747	1.65815	5.35236	41.182
13.5758	1.65815	5.35236	40.8656
13.6768	1.65815	5.35236	40.5462
13.7778	1.65815	5.35236	40.2232
13.8788	1.65815	5.35236	39.8961
13.9798	1.65815	5.35236	39.5641
14.0808	1.65815	5.35236	39.2265
14.1818	1.65815	5.35236	38.882
14.2828	1.65815	5.35236	38.5295
14.3838	1.65815	5.35236	38.1674
14.4848	1.65815	5.35236	37.7938
14.5859	1.65815	5.35236	37.4063
14.6869	1.65815	5.35236	37.0022
14.7879	1.65815	5.35236	36.578
14.8889	1.65815	5.35236	36.1294
14.9899	1.65815	5.35236	35.6511
15.0909	1.65815	5.35236	35.1366
15.1919	1.65815	5.35236	34.5778
15.2929	1.65815	5.35236	33.9645
15.3939	1.65815	5.35236	33.284
15.4949	1.65815	5.35236	32.5205
15.596	1.65815	5.35236	31.6539
15.697	1.65815	5.35236	30.6582
15.798	1.65815	5.35236	29.4996
15.899	1.65815	5.35236	28.1211
16	1.65815	5.35236	-inf
6	1.67856	5.46469	57.3088
6.10101	1.67856	5.46469	57.2068
6.20202	1.67856	5.46469	57.0991
6.30303	1.67856	5.46469	56.9834
6.40404	1.67856	5.46469	56.8584
6.50505	1.67856	5.46469	56.7233
6.60606	1.67856	5.46469	56.5784
6.70707	1.67856	5.46469	56.4243
6.80808	1.67856	5.46469	56.2619
6.90909	1.67856	5.46469	56.0924
7.0101	1.67856	5.46469	55.9169
7.11111	1.67856	5.46469	55.7363
7.21212	1.67856	5.46469	55.5515
7.31313	1.67856	5.46469	55.3633
7.41414	1.67856	5.46469	55.1724
7.51515	1.67856	5.46469	54.9792
7.61616	1.67856	5.46469	54.7842
7.71717	1.67856	5.46469	54.5878
7.81818	1.67856	5.46469	54.3903
7.91919	1.67856	5.46469	54.1918
8.0202	1.67856	5.46469	53.9926
8.12121	1.67856	5.46469	53.7928
8.22222	1.67856	5.46469	53.5925
8.32323	1.67856	5.46469	53.3919
8.42424	1.67856	5.46469	53.1909
8.52525	1.67856	5.46469	52.9897
8.62626	1.67856	5.46469	52.7883
8.72727	1.67856	5.46469	52.5868
8.82828	1.67856	5.46469	52.3851
8.92929	1.67856	5.46469	52.1832
9.0303	1.67856	5.46469	51.9813
9.13131	1.67856	5.46469	51.7792
9.23232	1.67856	5.46469	51.577
9.33333	1.67856	5.46469	51.3747
9.43434	1.67856	5.46469	51.1723
9.53535	1.67856	5.46469	50.9696
9.63636	1.67856	5.46469	50.7668
9.73737	1.67856	5.46469	50.5637
9.83838	1.67856	5.46469	50.3603
9.93939	1.67856	5.46469	50.1564
10.0404	1.67856	5.46469	49.9521
10.1414	1.67856	5.46469	49.7472
10.2424	1.67856	5.46469	49.5415
10.3434	1.67856	5.46469	49.3348
10.4444	1.67856	5.46469	49.1269
10.5455	1.67856	5.46469	48.9175
10.6465	1.67856	5.46469	48.7063
10.7475	1.67856	5.46469	48.4928
10.8485	1.67856	5.46469	48.2768
10.9495	1.67856	5.46469	48.0575
11.0505	1.67856	5.46469	47.8346
11.1515	1.67856	5.46469	47.6075
11.2525	1.67856	5.46469	47.3756
11.3535	1.67856	5.46469	47.1385
11.4545	1.67856	5.46469	46.8958
11.5556	1.67856	5.46469	46.6472
11.6566	1.67856	5.46469	46.3926
11.7576	1.67856	5.46469	46.1321
11.8586	1.67856	5.46469	45.8658
11.9596	1.67856	5.46469	45.594
12.0606	1.67856	5.46469	45.3172
12.1616	1.67856	5.46469	45.0359
12.2626	1.67856	5.46469	44.7504
12.3636	1.67856	5.46469	44.4614
12.4646	1.67856	5.46469	44.1692
12.5657	1.67856	5.46469	43.8742
12.6667	1.67856	5.46469	43.5768
12.7677	1.67856	5.46469	43.2771
12.8687	1.67856	5.46469	42.9755
12.9697	1.67856	5.46469	42.6719
13.0707	1.67856	5.46469	42.3664
13.1717	1.67856	5.46469	42.0591
13.2727	1.67856	5.46469	41.7498
13.3737	1.67856	5.46469	41.4384
13.4747	1.67856	5.46469	41.1246
13.5758	1.67856	5.46469	40.8082
13.6768	1.67856	5.46469	40.4887
13.7778	1.67856	5.46469	40.1657
13.8788	1.67856	5.46469	39.8386
13.9798	1.67856	5.46469	39.5067
14.0808	1.67856	5.46469	39.169
14.1818	1.67856	5.46469	38.8245
14.2828	1.67856	5.46469	38.472
14.3838	1.67856	5.46469	38.1099
14.4848	1.67856	5.46469	37.7363
14.5859	1.67856	5.46469	37.3488
14.6869	1.67856	5.46469	36.9447
14.7879	1.67856	5.46469	36.5205
14.8889	1.67856	5.46469	36.0719
14.9899	1.67856	5.46469	35.5936
15.0909	1.67856	5.46469	35.0791
15.1919	1.67856	5.46469	34.5202
15.2929	1.67856	5.46469	33.9069
15.3939	1.67856	5.46469	33.2265
15.4949	1.67856	5.46469	32.463
15.596	1.67856	5.46469	31.5963
15.697	1.67856	5.46469	30.6007
15.798	1.67856	5.46469	29.4421
15.899	1.67856	5.46469	28.0636
16	1.67856	5.46469	-inf
6	1.69897	5.5815	-inf
6.10101	1.69897	5.5815	-inf
6.20202	1.69897	5.5815	-inf
6.30303	1.69897	5.5815	-inf
6.40404	1.69897	5.5815	-inf
6.50505	1.69897	5.5815	-inf
6.60606	1.69897	5.5815	-inf
6.70707	1.69897	5.5815	-inf
6.80808	1.69897	5.5815	-inf
6.90909	1.69897	5.5815	-inf
7.0101	1.69897	5.5815	-inf
7.11111	1.69897	5.5815	-inf
7.21212	1.69897	5.5815	-inf
7.31313	1.69897	5.5815	-inf
7.41414	1.69897	5.5815	-inf
7.51515	1.69897	5.5815	-inf
7.61616	1.69897	5.5815	-inf
7.71717	1.69897	5.5815	-inf
7.81818	1.69897	5.5815	-inf
7.91919	1.69897	5.5815	-inf
8.0202	1.69897	5.5815	-inf
8.12121	1.69897	5.5815	-inf
8.22222	1.69897	5.5815	-inf
8.32323	1.69897	5.5815	-inf
8.42424	1.69897	5.5815	-inf
8.52525	1.69897	5.5815	-inf
8.62626	1.69897	5.5815	-inf
8.72727	1.69897	5.5815	-inf
8.82828	1.69897	5.5815	-inf
8.92929	1.69897	5.5815	-inf
9.0303	1.69897	5.5815	-inf
9.13131	1.69897	5.5815	-inf
9.23232	1.69897	5.5815	-inf
9.33333	1.69897	5.5815	-inf
9.43434	1.69897	5.5815	-inf
9.53535	1.69897	5.5815	-inf
9.63636	1.69897	5.5815	-inf
9.73737	1.69897	5.5815	-inf
9.83838	1.69897	5.5815	-inf
9.93939	1.69897	5.5815	-inf
10.0404	1.69897	5.5815	-inf
10.1414	1.69897	5.5815	-inf
10.2424	1.69897	5.5815	-inf
10.3434	1.69897	5.5815	-inf
10.4444	1.69897	5.5815	-inf
10.5455	1.69897	5.5815	-inf
10.6465	1.69897	5.5815	-inf
10.7475	1.69897	5.5815	-inf
10.8485	1.69897	5.5815	-inf
10.9495	1.69897	5.5815	-inf
11.0505	1.69897	5.5815	-inf
11.1515	1.69897	5.5815	-inf
11.2525	1.69897	5.5815	-inf
11.3535	1.69897	5.5815	-inf
11.4545	1.69897	5.5815	-inf
11.5556	1.69897	5.5815	-inf
11.6566	1.69897	5.5815	-inf
11.7576	1.69897	5.5815	-inf
11.8586	1.69897	5.5815	-inf
11.9596	1.69897	5.5815	-inf
12.0606	1.69897	5.5815	-inf
12.1616	1.69897	5.5815	-inf
12.2626	1.69897	5.5815	-inf
12.3636	1.69897	5.5815	-inf
12.4646	1.69897	5.5815	-inf
12.5657	1.69897	5.5815	-inf
12.6667	1.69897	5.5815	-inf
12.7677	1.69897	5.5815	-inf
12.8687	1.69897	5.5815	-inf
12.9697	1.69897	5.5815	-inf
13.0707	1.69897	5.5815	-inf
13.1717	1.69897	5.5815	-inf
13.2727	1.69897	5.5815	-inf
13.3737	1.69897	5.5815	-inf
13.4747	1.69897	5.5815	-inf
13.5758	1.69897	5.5815	-inf
13.6768	1.69897	5.5815	-inf
13.7778	1.69897	5.5815	-inf
13.8788	1.69897	5.5815	-inf
13.9798	1.69897	5.5815	-inf
14.0808	1.69897	5.5815	-inf
14.1818	1.69897	5.5815	-inf
14.2828	1.69897	5.5815	-inf
14.3838	1.69897	5.5815	-inf
14.4848	1.69897	5.5815	-inf
14.5859	1.69897	5.5815	-inf
14.6869	1.69897	5.5815	-inf
14.7879	1.69897	5.5815	-inf
14.8889	1.69897	5.5815	-inf
14.9899	1.69897	5.5815	-inf
15.0909	1.69897	5.5815	-inf
15.1919	1.69897	5.5815	-inf
15.2929	1.69897	5.5815	-inf
15.3939	1.69897	5.5815	-inf
15.4949	1.69897	5.5815	-inf
15.596	1.69897	5.5815	-inf
15.697	1.69897	5.5815	-inf
15.798	1.69897	5.5815	-inf
15.899	1.69897	5.5815	-inf
16	1.69897	5.5815	-inf
