log(E / eV)	log(z / pc)	t / yr	 logQ
6	1	32.7213	49.7725
6.37931	1	32.7213	50.2787
6.75862	1	32.7213	50.0482
7.13793	1	32.7213	49.5101
7.51724	1	32.7213	48.8435
7.89655	1	32.7213	48.1233
8.27586	1	32.7213	47.3808
8.65517	1	32.7213	46.6288
9.03448	1	32.7213	45.873
9.41379	1	32.7213	45.1156
9.7931	1	32.7213	44.3574
10.1724	1	32.7213	43.599
10.5517	1	32.7213	42.8404
10.931	1	32.7213	42.0818
11.3103	1	32.7213	41.323
11.6897	1	32.7213	40.564
12.069	1	32.7213	39.8044
12.4483	1	32.7213	39.0435
12.8276	1	32.7213	38.2794
13.2069	1	32.7213	37.5075
13.5862	1	32.7213	36.7173
13.9655	1	32.7213	35.883
14.3448	1	32.7213	34.9432
14.7241	1	32.7213	33.7506
15.1034	1	32.7213	31.9524
15.4828	1	32.7213	28.7042
15.8621	1	32.7213	21.9828
16.2414	1	32.7213	6.94318
16.6207	1	32.7213	-28.0188
17	1	32.7213	-110.695
6	1.03448	35.4253	48.6388
6.37931	1.03448	35.4253	49.145
6.75862	1.03448	35.4253	48.9144
7.13793	1.03448	35.4253	48.3763
7.51724	1.03448	35.4253	47.7098
7.89655	1.03448	35.4253	46.9896
8.27586	1.03448	35.4253	46.247
8.65517	1.03448	35.4253	45.4951
9.03448	1.03448	35.4253	44.7393
9.41379	1.03448	35.4253	43.9818
9.7931	1.03448	35.4253	43.2237
10.1724	1.03448	35.4253	42.4652
10.5517	1.03448	35.4253	41.7067
10.931	1.03448	35.4253	40.948
11.3103	1.03448	35.4253	40.1892
11.6897	1.03448	35.4253	39.4302
12.069	1.03448	35.4253	38.6707
12.4483	1.03448	35.4253	37.9097
12.8276	1.03448	35.4253	37.1456
13.2069	1.03448	35.4253	36.3738
13.5862	1.03448	35.4253	35.5836
13.9655	1.03448	35.4253	34.7493
14.3448	1.03448	35.4253	33.8095
14.7241	1.03448	35.4253	32.6168
15.1034	1.03448	35.4253	30.8187
15.4828	1.03448	35.4253	27.5704
15.8621	1.03448	35.4253	20.849
16.2414	1.03448	35.4253	5.80942
16.6207	1.03448	35.4253	-29.1525
17	1.03448	35.4253	-111.829
6	1.06897	38.3527	48.6297
6.37931	1.06897	38.3527	49.1359
6.75862	1.06897	38.3527	48.9054
7.13793	1.06897	38.3527	48.3673
7.51724	1.06897	38.3527	47.7007
7.89655	1.06897	38.3527	46.9805
8.27586	1.06897	38.3527	46.238
8.65517	1.06897	38.3527	45.486
9.03448	1.06897	38.3527	44.7302
9.41379	1.06897	38.3527	43.9728
9.7931	1.06897	38.3527	43.2146
10.1724	1.06897	38.3527	42.4562
10.5517	1.06897	38.3527	41.6976
10.931	1.06897	38.3527	40.939
11.3103	1.06897	38.3527	40.1802
11.6897	1.06897	38.3527	39.4212
12.069	1.06897	38.3527	38.6616
12.4483	1.06897	38.3527	37.9007
12.8276	1.06897	38.3527	37.1366
13.2069	1.06897	38.3527	36.3648
13.5862	1.06897	38.3527	35.5745
13.9655	1.06897	38.3527	34.7403
14.3448	1.06897	38.3527	33.8004
14.7241	1.06897	38.3527	32.6078
15.1034	1.06897	38.3527	30.8096
15.4828	1.06897	38.3527	27.5614
15.8621	1.06897	38.3527	20.84
16.2414	1.06897	38.3527	5.80039
16.6207	1.06897	38.3527	-29.1616
17	1.06897	38.3527	-111.838
6	1.10345	41.5221	48.6207
6.37931	1.10345	41.5221	49.1269
6.75862	1.10345	41.5221	48.8964
7.13793	1.10345	41.5221	48.3583
7.51724	1.10345	41.5221	47.6917
7.89655	1.10345	41.5221	46.9715
8.27586	1.10345	41.5221	46.229
8.65517	1.10345	41.5221	45.4771
9.03448	1.10345	41.5221	44.7212
9.41379	1.10345	41.5221	43.9638
9.7931	1.10345	41.5221	43.2056
10.1724	1.10345	41.5221	42.4472
10.5517	1.10345	41.5221	41.6886
10.931	1.10345	41.5221	40.93
11.3103	1.10345	41.5221	40.1712
11.6897	1.10345	41.5221	39.4122
12.069	1.10345	41.5221	38.6526
12.4483	1.10345	41.5221	37.8917
12.8276	1.10345	41.5221	37.1276
13.2069	1.10345	41.5221	36.3558
13.5862	1.10345	41.5221	35.5656
13.9655	1.10345	41.5221	34.7313
14.3448	1.10345	41.5221	33.7914
14.7241	1.10345	41.5221	32.5988
15.1034	1.10345	41.5221	30.8007
15.4828	1.10345	41.5221	27.5524
15.8621	1.10345	41.5221	20.831
16.2414	1.10345	41.5221	5.7914
16.6207	1.10345	41.5221	-29.1706
17	1.10345	41.5221	-111.847
6	1.13793	44.9533	48.6118
6.37931	1.13793	44.9533	49.118
6.75862	1.13793	44.9533	48.8875
7.13793	1.13793	44.9533	48.3493
7.51724	1.13793	44.9533	47.6828
7.89655	1.13793	44.9533	46.9626
8.27586	1.13793	44.9533	46.22
8.65517	1.13793	44.9533	45.4681
9.03448	1.13793	44.9533	44.7123
9.41379	1.13793	44.9533	43.9548
9.7931	1.13793	44.9533	43.1967
10.1724	1.13793	44.9533	42.4383
10.5517	1.13793	44.9533	41.6797
10.931	1.13793	44.9533	40.921
11.3103	1.13793	44.9533	40.1623
11.6897	1.13793	44.9533	39.4033
12.069	1.13793	44.9533	38.6437
12.4483	1.13793	44.9533	37.8828
12.8276	1.13793	44.9533	37.1186
13.2069	1.13793	44.9533	36.3468
13.5862	1.13793	44.9533	35.5566
13.9655	1.13793	44.9533	34.7223
14.3448	1.13793	44.9533	33.7825
14.7241	1.13793	44.9533	32.5898
15.1034	1.13793	44.9533	30.7917
15.4828	1.13793	44.9533	27.5434
15.8621	1.13793	44.9533	20.8221
16.2414	1.13793	44.9533	5.78245
16.6207	1.13793	44.9533	-29.1795
17	1.13793	44.9533	-111.856
6	1.17241	48.6681	48.6029
6.37931	1.17241	48.6681	49.1091
6.75862	1.17241	48.6681	48.8786
7.13793	1.17241	48.6681	48.3404
7.51724	1.17241	48.6681	47.6739
7.89655	1.17241	48.6681	46.9537
8.27586	1.17241	48.6681	46.2111
8.65517	1.17241	48.6681	45.4592
9.03448	1.17241	48.6681	44.7034
9.41379	1.17241	48.6681	43.9459
9.7931	1.17241	48.6681	43.1878
10.1724	1.17241	48.6681	42.4294
10.5517	1.17241	48.6681	41.6708
10.931	1.17241	48.6681	40.9122
11.3103	1.17241	48.6681	40.1534
11.6897	1.17241	48.6681	39.3944
12.069	1.17241	48.6681	38.6348
12.4483	1.17241	48.6681	37.8739
12.8276	1.17241	48.6681	37.1097
13.2069	1.17241	48.6681	36.3379
13.5862	1.17241	48.6681	35.5477
13.9655	1.17241	48.6681	34.7134
14.3448	1.17241	48.6681	33.7736
14.7241	1.17241	48.6681	32.5809
15.1034	1.17241	48.6681	30.7828
15.4828	1.17241	48.6681	27.5345
15.8621	1.17241	48.6681	20.8132
16.2414	1.17241	48.6681	5.77355
16.6207	1.17241	48.6681	-29.1884
17	1.17241	48.6681	-111.865
6	1.2069	52.6899	48.594
6.37931	1.2069	52.6899	49.1002
6.75862	1.2069	52.6899	48.8697
7.13793	1.2069	52.6899	48.3316
7.51724	1.2069	52.6899	47.665
7.89655	1.2069	52.6899	46.9449
8.27586	1.2069	52.6899	46.2023
8.65517	1.2069	52.6899	45.4504
9.03448	1.2069	52.6899	44.6945
9.41379	1.2069	52.6899	43.9371
9.7931	1.2069	52.6899	43.1789
10.1724	1.2069	52.6899	42.4205
10.5517	1.2069	52.6899	41.662
10.931	1.2069	52.6899	40.9033
11.3103	1.2069	52.6899	40.1445
11.6897	1.2069	52.6899	39.3855
12.069	1.2069	52.6899	38.6259
12.4483	1.2069	52.6899	37.865
12.8276	1.2069	52.6899	37.1009
13.2069	1.2069	52.6899	36.3291
13.5862	1.2069	52.6899	35.5389
13.9655	1.2069	52.6899	34.7046
14.3448	1.2069	52.6899	33.7647
14.7241	1.2069	52.6899	32.5721
15.1034	1.2069	52.6899	30.774
15.4828	1.2069	52.6899	27.5257
15.8621	1.2069	52.6899	20.8043
16.2414	1.2069	52.6899	5.7647
16.6207	1.2069	52.6899	-29.1973
17	1.2069	52.6899	-111.874
6	1.24138	57.044	48.5852
6.37931	1.24138	57.044	49.0914
6.75862	1.24138	57.044	48.8609
7.13793	1.24138	57.044	48.3228
7.51724	1.24138	57.044	47.6562
7.89655	1.24138	57.044	46.936
8.27586	1.24138	57.044	46.1935
8.65517	1.24138	57.044	45.4416
9.03448	1.24138	57.044	44.6857
9.41379	1.24138	57.044	43.9283
9.7931	1.24138	57.044	43.1701
10.1724	1.24138	57.044	42.4117
10.5517	1.24138	57.044	41.6531
10.931	1.24138	57.044	40.8945
11.3103	1.24138	57.044	40.1357
11.6897	1.24138	57.044	39.3767
12.069	1.24138	57.044	38.6171
12.4483	1.24138	57.044	37.8562
12.8276	1.24138	57.044	37.0921
13.2069	1.24138	57.044	36.3203
13.5862	1.24138	57.044	35.53
13.9655	1.24138	57.044	34.6958
14.3448	1.24138	57.044	33.7559
14.7241	1.24138	57.044	32.5633
15.1034	1.24138	57.044	30.7651
15.4828	1.24138	57.044	27.5169
15.8621	1.24138	57.044	20.7955
16.2414	1.24138	57.044	5.75589
16.6207	1.24138	57.044	-29.2061
17	1.24138	57.044	-111.883
6	1.27586	61.7579	48.5765
6.37931	1.27586	61.7579	49.0827
6.75862	1.27586	61.7579	48.8521
7.13793	1.27586	61.7579	48.314
7.51724	1.27586	61.7579	47.6475
7.89655	1.27586	61.7579	46.9273
8.27586	1.27586	61.7579	46.1847
8.65517	1.27586	61.7579	45.4328
9.03448	1.27586	61.7579	44.677
9.41379	1.27586	61.7579	43.9195
9.7931	1.27586	61.7579	43.1614
10.1724	1.27586	61.7579	42.4029
10.5517	1.27586	61.7579	41.6444
10.931	1.27586	61.7579	40.8857
11.3103	1.27586	61.7579	40.1269
11.6897	1.27586	61.7579	39.3679
12.069	1.27586	61.7579	38.6084
12.4483	1.27586	61.7579	37.8474
12.8276	1.27586	61.7579	37.0833
13.2069	1.27586	61.7579	36.3115
13.5862	1.27586	61.7579	35.5213
13.9655	1.27586	61.7579	34.687
14.3448	1.27586	61.7579	33.7472
14.7241	1.27586	61.7579	32.5545
15.1034	1.27586	61.7579	30.7564
15.4828	1.27586	61.7579	27.5081
15.8621	1.27586	61.7579	20.7867
16.2414	1.27586	61.7579	5.74712
16.6207	1.27586	61.7579	-29.2148
17	1.27586	61.7579	-111.891
6	1.31034	66.8614	48.5677
6.37931	1.31034	66.8614	49.0739
6.75862	1.31034	66.8614	48.8434
7.13793	1.31034	66.8614	48.3053
7.51724	1.31034	66.8614	47.6387
7.89655	1.31034	66.8614	46.9186
8.27586	1.31034	66.8614	46.176
8.65517	1.31034	66.8614	45.4241
9.03448	1.31034	66.8614	44.6682
9.41379	1.31034	66.8614	43.9108
9.7931	1.31034	66.8614	43.1527
10.1724	1.31034	66.8614	42.3942
10.5517	1.31034	66.8614	41.6357
10.931	1.31034	66.8614	40.877
11.3103	1.31034	66.8614	40.1182
11.6897	1.31034	66.8614	39.3592
12.069	1.31034	66.8614	38.5996
12.4483	1.31034	66.8614	37.8387
12.8276	1.31034	66.8614	37.0746
13.2069	1.31034	66.8614	36.3028
13.5862	1.31034	66.8614	35.5126
13.9655	1.31034	66.8614	34.6783
14.3448	1.31034	66.8614	33.7384
14.7241	1.31034	66.8614	32.5458
15.1034	1.31034	66.8614	30.7477
15.4828	1.31034	66.8614	27.4994
15.8621	1.31034	66.8614	20.778
16.2414	1.31034	66.8614	5.7384
16.6207	1.31034	66.8614	-29.2236
17	1.31034	66.8614	-111.9
6	1.34483	72.3866	48.5591
6.37931	1.34483	72.3866	49.0653
6.75862	1.34483	72.3866	48.8347
7.13793	1.34483	72.3866	48.2966
7.51724	1.34483	72.3866	47.6301
7.89655	1.34483	72.3866	46.9099
8.27586	1.34483	72.3866	46.1673
8.65517	1.34483	72.3866	45.4154
9.03448	1.34483	72.3866	44.6596
9.41379	1.34483	72.3866	43.9021
9.7931	1.34483	72.3866	43.144
10.1724	1.34483	72.3866	42.3855
10.5517	1.34483	72.3866	41.627
10.931	1.34483	72.3866	40.8683
11.3103	1.34483	72.3866	40.1095
11.6897	1.34483	72.3866	39.3505
12.069	1.34483	72.3866	38.591
12.4483	1.34483	72.3866	37.83
12.8276	1.34483	72.3866	37.0659
13.2069	1.34483	72.3866	36.2941
13.5862	1.34483	72.3866	35.5039
13.9655	1.34483	72.3866	34.6696
14.3448	1.34483	72.3866	33.7298
14.7241	1.34483	72.3866	32.5371
15.1034	1.34483	72.3866	30.739
15.4828	1.34483	72.3866	27.4907
15.8621	1.34483	72.3866	20.7693
16.2414	1.34483	72.3866	5.72972
16.6207	1.34483	72.3866	-29.2322
17	1.34483	72.3866	-111.909
6	1.37931	78.3684	48.5504
6.37931	1.37931	78.3684	49.0566
6.75862	1.37931	78.3684	48.8261
7.13793	1.37931	78.3684	48.288
7.51724	1.37931	78.3684	47.6214
7.89655	1.37931	78.3684	46.9012
8.27586	1.37931	78.3684	46.1587
8.65517	1.37931	78.3684	45.4068
9.03448	1.37931	78.3684	44.6509
9.41379	1.37931	78.3684	43.8935
9.7931	1.37931	78.3684	43.1353
10.1724	1.37931	78.3684	42.3769
10.5517	1.37931	78.3684	41.6183
10.931	1.37931	78.3684	40.8597
11.3103	1.37931	78.3684	40.1009
11.6897	1.37931	78.3684	39.3419
12.069	1.37931	78.3684	38.5823
12.4483	1.37931	78.3684	37.8214
12.8276	1.37931	78.3684	37.0573
13.2069	1.37931	78.3684	36.2855
13.5862	1.37931	78.3684	35.4952
13.9655	1.37931	78.3684	34.661
14.3448	1.37931	78.3684	33.7211
14.7241	1.37931	78.3684	32.5285
15.1034	1.37931	78.3684	30.7303
15.4828	1.37931	78.3684	27.4821
15.8621	1.37931	78.3684	20.7607
16.2414	1.37931	78.3684	5.72109
16.6207	1.37931	78.3684	-29.2409
17	1.37931	78.3684	-111.917
6	1.41379	84.8445	48.5418
6.37931	1.41379	84.8445	49.048
6.75862	1.41379	84.8445	48.8175
7.13793	1.41379	84.8445	48.2794
7.51724	1.41379	84.8445	47.6128
7.89655	1.41379	84.8445	46.8926
8.27586	1.41379	84.8445	46.1501
8.65517	1.41379	84.8445	45.3982
9.03448	1.41379	84.8445	44.6423
9.41379	1.41379	84.8445	43.8849
9.7931	1.41379	84.8445	43.1267
10.1724	1.41379	84.8445	42.3683
10.5517	1.41379	84.8445	41.6097
10.931	1.41379	84.8445	40.8511
11.3103	1.41379	84.8445	40.0923
11.6897	1.41379	84.8445	39.3333
12.069	1.41379	84.8445	38.5737
12.4483	1.41379	84.8445	37.8128
12.8276	1.41379	84.8445	37.0487
13.2069	1.41379	84.8445	36.2769
13.5862	1.41379	84.8445	35.4867
13.9655	1.41379	84.8445	34.6524
14.3448	1.41379	84.8445	33.7125
14.7241	1.41379	84.8445	32.5199
15.1034	1.41379	84.8445	30.7218
15.4828	1.41379	84.8445	27.4735
15.8621	1.41379	84.8445	20.7521
16.2414	1.41379	84.8445	5.7125
16.6207	1.41379	84.8445	-29.2495
17	1.41379	84.8445	-111.926
6	1.44828	91.8558	48.5333
6.37931	1.44828	91.8558	49.0395
6.75862	1.44828	91.8558	48.809
7.13793	1.44828	91.8558	48.2708
7.51724	1.44828	91.8558	47.6043
7.89655	1.44828	91.8558	46.8841
8.27586	1.44828	91.8558	46.1415
8.65517	1.44828	91.8558	45.3896
9.03448	1.44828	91.8558	44.6338
9.41379	1.44828	91.8558	43.8763
9.7931	1.44828	91.8558	43.1182
10.1724	1.44828	91.8558	42.3598
10.5517	1.44828	91.8558	41.6012
10.931	1.44828	91.8558	40.8425
11.3103	1.44828	91.8558	40.0838
11.6897	1.44828	91.8558	39.3248
12.069	1.44828	91.8558	38.5652
12.4483	1.44828	91.8558	37.8043
12.8276	1.44828	91.8558	37.0401
13.2069	1.44828	91.8558	36.2683
13.5862	1.44828	91.8558	35.4781
13.9655	1.44828	91.8558	34.6438
14.3448	1.44828	91.8558	33.704
14.7241	1.44828	91.8558	32.5113
15.1034	1.44828	91.8558	30.7132
15.4828	1.44828	91.8558	27.4649
15.8621	1.44828	91.8558	20.7436
16.2414	1.44828	91.8558	5.70395
16.6207	1.44828	91.8558	-29.258
17	1.44828	91.8558	-111.935
6	1.48276	99.4465	48.5248
6.37931	1.48276	99.4465	49.031
6.75862	1.48276	99.4465	48.8004
7.13793	1.48276	99.4465	48.2623
7.51724	1.48276	99.4465	47.5958
7.89655	1.48276	99.4465	46.8756
8.27586	1.48276	99.4465	46.133
8.65517	1.48276	99.4465	45.3811
9.03448	1.48276	99.4465	44.6253
9.41379	1.48276	99.4465	43.8678
9.7931	1.48276	99.4465	43.1097
10.1724	1.48276	99.4465	42.3513
10.5517	1.48276	99.4465	41.5927
10.931	1.48276	99.4465	40.834
11.3103	1.48276	99.4465	40.0753
11.6897	1.48276	99.4465	39.3162
12.069	1.48276	99.4465	38.5567
12.4483	1.48276	99.4465	37.7957
12.8276	1.48276	99.4465	37.0316
13.2069	1.48276	99.4465	36.2598
13.5862	1.48276	99.4465	35.4696
13.9655	1.48276	99.4465	34.6353
14.3448	1.48276	99.4465	33.6955
14.7241	1.48276	99.4465	32.5028
15.1034	1.48276	99.4465	30.7047
15.4828	1.48276	99.4465	27.4564
15.8621	1.48276	99.4465	20.735
16.2414	1.48276	99.4465	5.69544
16.6207	1.48276	99.4465	-29.2665
17	1.48276	99.4465	-111.943
6	1.51724	107.664	48.5163
6.37931	1.51724	107.664	49.0225
6.75862	1.51724	107.664	48.792
7.13793	1.51724	107.664	48.2539
7.51724	1.51724	107.664	47.5873
7.89655	1.51724	107.664	46.8671
8.27586	1.51724	107.664	46.1245
8.65517	1.51724	107.664	45.3726
9.03448	1.51724	107.664	44.6168
9.41379	1.51724	107.664	43.8594
9.7931	1.51724	107.664	43.1012
10.1724	1.51724	107.664	42.3428
10.5517	1.51724	107.664	41.5842
10.931	1.51724	107.664	40.8256
11.3103	1.51724	107.664	40.0668
11.6897	1.51724	107.664	39.3078
12.069	1.51724	107.664	38.5482
12.4483	1.51724	107.664	37.7873
12.8276	1.51724	107.664	37.0232
13.2069	1.51724	107.664	36.2513
13.5862	1.51724	107.664	35.4611
13.9655	1.51724	107.664	34.6268
14.3448	1.51724	107.664	33.687
14.7241	1.51724	107.664	32.4944
15.1034	1.51724	107.664	30.6962
15.4828	1.51724	107.664	27.448
15.8621	1.51724	107.664	20.7266
16.2414	1.51724	107.664	5.68697
16.6207	1.51724	107.664	-29.275
17	1.51724	107.664	-111.952
6	1.55172	116.561	48.5079
6.37931	1.55172	116.561	49.0141
6.75862	1.55172	116.561	48.7836
7.13793	1.55172	116.561	48.2454
7.51724	1.55172	116.561	47.5789
7.89655	1.55172	116.561	46.8587
8.27586	1.55172	116.561	46.1161
8.65517	1.55172	116.561	45.3642
9.03448	1.55172	116.561	44.6084
9.41379	1.55172	116.561	43.8509
9.7931	1.55172	116.561	43.0928
10.1724	1.55172	116.561	42.3344
10.5517	1.55172	116.561	41.5758
10.931	1.55172	116.561	40.8171
11.3103	1.55172	116.561	40.0584
11.6897	1.55172	116.561	39.2993
12.069	1.55172	116.561	38.5398
12.4483	1.55172	116.561	37.7789
12.8276	1.55172	116.561	37.0147
13.2069	1.55172	116.561	36.2429
13.5862	1.55172	116.561	35.4527
13.9655	1.55172	116.561	34.6184
14.3448	1.55172	116.561	33.6786
14.7241	1.55172	116.561	32.4859
15.1034	1.55172	116.561	30.6878
15.4828	1.55172	116.561	27.4395
15.8621	1.55172	116.561	20.7181
16.2414	1.55172	116.561	5.67854
16.6207	1.55172	116.561	-29.2834
17	1.55172	116.561	-111.96
6	1.58621	126.194	48.4995
6.37931	1.58621	126.194	49.0057
6.75862	1.58621	126.194	48.7752
7.13793	1.58621	126.194	48.237
7.51724	1.58621	126.194	47.5705
7.89655	1.58621	126.194	46.8503
8.27586	1.58621	126.194	46.1077
8.65517	1.58621	126.194	45.3558
9.03448	1.58621	126.194	44.6
9.41379	1.58621	126.194	43.8425
9.7931	1.58621	126.194	43.0844
10.1724	1.58621	126.194	42.326
10.5517	1.58621	126.194	41.5674
10.931	1.58621	126.194	40.8087
11.3103	1.58621	126.194	40.05
11.6897	1.58621	126.194	39.291
12.069	1.58621	126.194	38.5314
12.4483	1.58621	126.194	37.7705
12.8276	1.58621	126.194	37.0063
13.2069	1.58621	126.194	36.2345
13.5862	1.58621	126.194	35.4443
13.9655	1.58621	126.194	34.61
14.3448	1.58621	126.194	33.6702
14.7241	1.58621	126.194	32.4775
15.1034	1.58621	126.194	30.6794
15.4828	1.58621	126.194	27.4311
15.8621	1.58621	126.194	20.7098
16.2414	1.58621	126.194	5.67015
16.6207	1.58621	126.194	-29.2918
17	1.58621	126.194	-111.968
6	1.62069	136.622	48.4911
6.37931	1.62069	136.622	48.9973
6.75862	1.62069	136.622	48.7668
7.13793	1.62069	136.622	48.2287
7.51724	1.62069	136.622	47.5621
7.89655	1.62069	136.622	46.842
8.27586	1.62069	136.622	46.0994
8.65517	1.62069	136.622	45.3475
9.03448	1.62069	136.622	44.5916
9.41379	1.62069	136.622	43.8342
9.7931	1.62069	136.622	43.0761
10.1724	1.62069	136.622	42.3176
10.5517	1.62069	136.622	41.5591
10.931	1.62069	136.622	40.8004
11.3103	1.62069	136.622	40.0416
11.6897	1.62069	136.622	39.2826
12.069	1.62069	136.622	38.523
12.4483	1.62069	136.622	37.7621
12.8276	1.62069	136.622	36.998
13.2069	1.62069	136.622	36.2262
13.5862	1.62069	136.622	35.436
13.9655	1.62069	136.622	34.6017
14.3448	1.62069	136.622	33.6618
14.7241	1.62069	136.622	32.4692
15.1034	1.62069	136.622	30.6711
15.4828	1.62069	136.622	27.4228
15.8621	1.62069	136.622	20.7014
16.2414	1.62069	136.622	5.6618
16.6207	1.62069	136.622	-29.3002
17	1.62069	136.622	-111.977
6	1.65517	147.912	48.4828
6.37931	1.65517	147.912	48.989
6.75862	1.65517	147.912	48.7585
7.13793	1.65517	147.912	48.2204
7.51724	1.65517	147.912	47.5538
7.89655	1.65517	147.912	46.8336
8.27586	1.65517	147.912	46.0911
8.65517	1.65517	147.912	45.3392
9.03448	1.65517	147.912	44.5833
9.41379	1.65517	147.912	43.8259
9.7931	1.65517	147.912	43.0677
10.1724	1.65517	147.912	42.3093
10.5517	1.65517	147.912	41.5507
10.931	1.65517	147.912	40.7921
11.3103	1.65517	147.912	40.0333
11.6897	1.65517	147.912	39.2743
12.069	1.65517	147.912	38.5147
12.4483	1.65517	147.912	37.7538
12.8276	1.65517	147.912	36.9897
13.2069	1.65517	147.912	36.2179
13.5862	1.65517	147.912	35.4277
13.9655	1.65517	147.912	34.5934
14.3448	1.65517	147.912	33.6535
14.7241	1.65517	147.912	32.4609
15.1034	1.65517	147.912	30.6628
15.4828	1.65517	147.912	27.4145
15.8621	1.65517	147.912	20.6931
16.2414	1.65517	147.912	5.6535
16.6207	1.65517	147.912	-29.3085
17	1.65517	147.912	-111.985
6	1.68966	160.135	48.4746
6.37931	1.68966	160.135	48.9808
6.75862	1.68966	160.135	48.7502
7.13793	1.68966	160.135	48.2121
7.51724	1.68966	160.135	47.5456
7.89655	1.68966	160.135	46.8254
8.27586	1.68966	160.135	46.0828
8.65517	1.68966	160.135	45.3309
9.03448	1.68966	160.135	44.5751
9.41379	1.68966	160.135	43.8176
9.7931	1.68966	160.135	43.0595
10.1724	1.68966	160.135	42.301
10.5517	1.68966	160.135	41.5425
10.931	1.68966	160.135	40.7838
11.3103	1.68966	160.135	40.0251
11.6897	1.68966	160.135	39.266
12.069	1.68966	160.135	38.5065
12.4483	1.68966	160.135	37.7455
12.8276	1.68966	160.135	36.9814
13.2069	1.68966	160.135	36.2096
13.5862	1.68966	160.135	35.4194
13.9655	1.68966	160.135	34.5851
14.3448	1.68966	160.135	33.6453
14.7241	1.68966	160.135	32.4526
15.1034	1.68966	160.135	30.6545
15.4828	1.68966	160.135	27.4062
15.8621	1.68966	160.135	20.6848
16.2414	1.68966	160.135	5.64523
16.6207	1.68966	160.135	-29.3167
17	1.68966	160.135	-111.993
6	1.72414	173.368	48.4663
6.37931	1.72414	173.368	48.9725
6.75862	1.72414	173.368	48.742
7.13793	1.72414	173.368	48.2039
7.51724	1.72414	173.368	47.5373
7.89655	1.72414	173.368	46.8172
8.27586	1.72414	173.368	46.0746
8.65517	1.72414	173.368	45.3227
9.03448	1.72414	173.368	44.5668
9.41379	1.72414	173.368	43.8094
9.7931	1.72414	173.368	43.0512
10.1724	1.72414	173.368	42.2928
10.5517	1.72414	173.368	41.5342
10.931	1.72414	173.368	40.7756
11.3103	1.72414	173.368	40.0168
11.6897	1.72414	173.368	39.2578
12.069	1.72414	173.368	38.4982
12.4483	1.72414	173.368	37.7373
12.8276	1.72414	173.368	36.9732
13.2069	1.72414	173.368	36.2014
13.5862	1.72414	173.368	35.4112
13.9655	1.72414	173.368	34.5769
14.3448	1.72414	173.368	33.637
14.7241	1.72414	173.368	32.4444
15.1034	1.72414	173.368	30.6463
15.4828	1.72414	173.368	27.398
15.8621	1.72414	173.368	20.6766
16.2414	1.72414	173.368	5.637
16.6207	1.72414	173.368	-29.325
17	1.72414	173.368	-112.001
6	1.75862	187.694	48.4581
6.37931	1.75862	187.694	48.9643
6.75862	1.75862	187.694	48.7338
7.13793	1.75862	187.694	48.1957
7.51724	1.75862	187.694	47.5291
7.89655	1.75862	187.694	46.809
8.27586	1.75862	187.694	46.0664
8.65517	1.75862	187.694	45.3145
9.03448	1.75862	187.694	44.5586
9.41379	1.75862	187.694	43.8012
9.7931	1.75862	187.694	43.0431
10.1724	1.75862	187.694	42.2846
10.5517	1.75862	187.694	41.5261
10.931	1.75862	187.694	40.7674
11.3103	1.75862	187.694	40.0086
11.6897	1.75862	187.694	39.2496
12.069	1.75862	187.694	38.49
12.4483	1.75862	187.694	37.7291
12.8276	1.75862	187.694	36.965
13.2069	1.75862	187.694	36.1932
13.5862	1.75862	187.694	35.403
13.9655	1.75862	187.694	34.5687
14.3448	1.75862	187.694	33.6288
14.7241	1.75862	187.694	32.4362
15.1034	1.75862	187.694	30.6381
15.4828	1.75862	187.694	27.3898
15.8621	1.75862	187.694	20.6684
16.2414	1.75862	187.694	5.62881
16.6207	1.75862	187.694	-29.3332
17	1.75862	187.694	-112.01
6	1.7931	203.205	48.45
6.37931	1.7931	203.205	48.9562
6.75862	1.7931	203.205	48.7257
7.13793	1.7931	203.205	48.1875
7.51724	1.7931	203.205	47.521
7.89655	1.7931	203.205	46.8008
8.27586	1.7931	203.205	46.0582
8.65517	1.7931	203.205	45.3063
9.03448	1.7931	203.205	44.5505
9.41379	1.7931	203.205	43.793
9.7931	1.7931	203.205	43.0349
10.1724	1.7931	203.205	42.2765
10.5517	1.7931	203.205	41.5179
10.931	1.7931	203.205	40.7592
11.3103	1.7931	203.205	40.0005
11.6897	1.7931	203.205	39.2415
12.069	1.7931	203.205	38.4819
12.4483	1.7931	203.205	37.721
12.8276	1.7931	203.205	36.9568
13.2069	1.7931	203.205	36.185
13.5862	1.7931	203.205	35.3948
13.9655	1.7931	203.205	34.5605
14.3448	1.7931	203.205	33.6207
14.7241	1.7931	203.205	32.428
15.1034	1.7931	203.205	30.6299
15.4828	1.7931	203.205	27.3816
15.8621	1.7931	203.205	20.6603
16.2414	1.7931	203.205	5.62065
16.6207	1.7931	203.205	-29.3413
17	1.7931	203.205	-112.018
6	1.82759	219.997	48.4419
6.37931	1.82759	219.997	48.9481
6.75862	1.82759	219.997	48.7175
7.13793	1.82759	219.997	48.1794
7.51724	1.82759	219.997	47.5129
7.89655	1.82759	219.997	46.7927
8.27586	1.82759	219.997	46.0501
8.65517	1.82759	219.997	45.2982
9.03448	1.82759	219.997	44.5424
9.41379	1.82759	219.997	43.7849
9.7931	1.82759	219.997	43.0268
10.1724	1.82759	219.997	42.2684
10.5517	1.82759	219.997	41.5098
10.931	1.82759	219.997	40.7511
11.3103	1.82759	219.997	39.9924
11.6897	1.82759	219.997	39.2333
12.069	1.82759	219.997	38.4738
12.4483	1.82759	219.997	37.7128
12.8276	1.82759	219.997	36.9487
13.2069	1.82759	219.997	36.1769
13.5862	1.82759	219.997	35.3867
13.9655	1.82759	219.997	34.5524
14.3448	1.82759	219.997	33.6126
14.7241	1.82759	219.997	32.4199
15.1034	1.82759	219.997	30.6218
15.4828	1.82759	219.997	27.3735
15.8621	1.82759	219.997	20.6521
16.2414	1.82759	219.997	5.61254
16.6207	1.82759	219.997	-29.3494
17	1.82759	219.997	-112.026
6	1.86207	238.177	48.4338
6.37931	1.86207	238.177	48.94
6.75862	1.86207	238.177	48.7095
7.13793	1.86207	238.177	48.1713
7.51724	1.86207	238.177	47.5048
7.89655	1.86207	238.177	46.7846
8.27586	1.86207	238.177	46.042
8.65517	1.86207	238.177	45.2901
9.03448	1.86207	238.177	44.5343
9.41379	1.86207	238.177	43.7768
9.7931	1.86207	238.177	43.0187
10.1724	1.86207	238.177	42.2603
10.5517	1.86207	238.177	41.5017
10.931	1.86207	238.177	40.7431
11.3103	1.86207	238.177	39.9843
11.6897	1.86207	238.177	39.2253
12.069	1.86207	238.177	38.4657
12.4483	1.86207	238.177	37.7048
12.8276	1.86207	238.177	36.9406
13.2069	1.86207	238.177	36.1688
13.5862	1.86207	238.177	35.3786
13.9655	1.86207	238.177	34.5443
14.3448	1.86207	238.177	33.6045
14.7241	1.86207	238.177	32.4118
15.1034	1.86207	238.177	30.6137
15.4828	1.86207	238.177	27.3654
15.8621	1.86207	238.177	20.6441
16.2414	1.86207	238.177	5.60446
16.6207	1.86207	238.177	-29.3575
17	1.86207	238.177	-112.034
6	1.89655	257.859	48.4258
6.37931	1.89655	257.859	48.9319
6.75862	1.89655	257.859	48.7014
7.13793	1.89655	257.859	48.1633
7.51724	1.89655	257.859	47.4967
7.89655	1.89655	257.859	46.7766
8.27586	1.89655	257.859	46.034
8.65517	1.89655	257.859	45.2821
9.03448	1.89655	257.859	44.5263
9.41379	1.89655	257.859	43.7688
9.7931	1.89655	257.859	43.0107
10.1724	1.89655	257.859	42.2522
10.5517	1.89655	257.859	41.4937
10.931	1.89655	257.859	40.735
11.3103	1.89655	257.859	39.9762
11.6897	1.89655	257.859	39.2172
12.069	1.89655	257.859	38.4576
12.4483	1.89655	257.859	37.6967
12.8276	1.89655	257.859	36.9326
13.2069	1.89655	257.859	36.1608
13.5862	1.89655	257.859	35.3706
13.9655	1.89655	257.859	34.5363
14.3448	1.89655	257.859	33.5964
14.7241	1.89655	257.859	32.4038
15.1034	1.89655	257.859	30.6057
15.4828	1.89655	257.859	27.3574
15.8621	1.89655	257.859	20.636
16.2414	1.89655	257.859	5.59642
16.6207	1.89655	257.859	-29.3655
17	1.89655	257.859	-112.042
6	1.93103	279.168	48.4178
6.37931	1.93103	279.168	48.9239
6.75862	1.93103	279.168	48.6934
7.13793	1.93103	279.168	48.1553
7.51724	1.93103	279.168	47.4887
7.89655	1.93103	279.168	46.7686
8.27586	1.93103	279.168	46.026
8.65517	1.93103	279.168	45.2741
9.03448	1.93103	279.168	44.5183
9.41379	1.93103	279.168	43.7608
9.7931	1.93103	279.168	43.0027
10.1724	1.93103	279.168	42.2442
10.5517	1.93103	279.168	41.4857
10.931	1.93103	279.168	40.727
11.3103	1.93103	279.168	39.9682
11.6897	1.93103	279.168	39.2092
12.069	1.93103	279.168	38.4496
12.4483	1.93103	279.168	37.6887
12.8276	1.93103	279.168	36.9246
13.2069	1.93103	279.168	36.1528
13.5862	1.93103	279.168	35.3626
13.9655	1.93103	279.168	34.5283
14.3448	1.93103	279.168	33.5884
14.7241	1.93103	279.168	32.3958
15.1034	1.93103	279.168	30.5977
15.4828	1.93103	279.168	27.3494
15.8621	1.93103	279.168	20.628
16.2414	1.93103	279.168	5.58841
16.6207	1.93103	279.168	-29.3735
17	1.93103	279.168	-112.05
6	1.96552	302.237	48.4098
6.37931	1.96552	302.237	48.916
6.75862	1.96552	302.237	48.6855
7.13793	1.96552	302.237	48.1473
7.51724	1.96552	302.237	47.4808
7.89655	1.96552	302.237	46.7606
8.27586	1.96552	302.237	46.018
8.65517	1.96552	302.237	45.2661
9.03448	1.96552	302.237	44.5103
9.41379	1.96552	302.237	43.7528
9.7931	1.96552	302.237	42.9947
10.1724	1.96552	302.237	42.2363
10.5517	1.96552	302.237	41.4777
10.931	1.96552	302.237	40.719
11.3103	1.96552	302.237	39.9603
11.6897	1.96552	302.237	39.2013
12.069	1.96552	302.237	38.4417
12.4483	1.96552	302.237	37.6808
12.8276	1.96552	302.237	36.9166
13.2069	1.96552	302.237	36.1448
13.5862	1.96552	302.237	35.3546
13.9655	1.96552	302.237	34.5203
14.3448	1.96552	302.237	33.5805
14.7241	1.96552	302.237	32.3878
15.1034	1.96552	302.237	30.5897
15.4828	1.96552	302.237	27.3414
15.8621	1.96552	302.237	20.62
16.2414	1.96552	302.237	5.58044
16.6207	1.96552	302.237	-29.3815
17	1.96552	302.237	-112.058
6	2	327.213	-inf
6.37931	2	327.213	-inf
6.75862	2	327.213	-inf
7.13793	2	327.213	-inf
7.51724	2	327.213	-inf
7.89655	2	327.213	-inf
8.27586	2	327.213	-inf
8.65517	2	327.213	-inf
9.03448	2	327.213	-inf
9.41379	2	327.213	-inf
9.7931	2	327.213	-inf
10.1724	2	327.213	-inf
10.5517	2	327.213	-inf
10.931	2	327.213	-inf
11.3103	2	327.213	-inf
11.6897	2	327.213	-inf
12.069	2	327.213	-inf
12.4483	2	327.213	-inf
12.8276	2	327.213	-inf
13.2069	2	327.213	-inf
13.5862	2	327.213	-inf
13.9655	2	327.213	-inf
14.3448	2	327.213	-inf
14.7241	2	327.213	-inf
15.1034	2	327.213	-inf
15.4828	2	327.213	-inf
15.8621	2	327.213	-inf
16.2414	2	327.213	-inf
16.6207	2	327.213	-inf
17	2	327.213	-inf
